loggingTime(txt),locationTimestamp_since1970(s),locationLatitude(WGS84),locationLongitude(WGS84),locationAltitude(m),locationSpeed(m/s),locationSpeedAccuracy(m/s),locationCourse(°),locationCourseAccuracy(°),locationVerticalAccuracy(m),locationHorizontalAccuracy(m),locationFloor(Z),accelerometerTimestamp_sinceReboot(s),accelerometerAccelerationX(G),accelerometerAccelerationY(G),accelerometerAccelerationZ(G),motionTimestamp_sinceReboot(s),motionYaw(rad),motionRoll(rad),motionPitch(rad),motionRotationRateX(rad/s),motionRotationRateY(rad/s),motionRotationRateZ(rad/s),motionUserAccelerationX(G),motionUserAccelerationY(G),motionUserAccelerationZ(G),motionAttitudeReferenceFrame(txt),motionQuaternionX(R),motionQuaternionY(R),motionQuaternionZ(R),motionQuaternionW(R),motionGravityX(G),motionGravityY(G),motionGravityZ(G),motionMagneticFieldX(µT),motionMagneticFieldY(µT),motionMagneticFieldZ(µT),motionHeading(°),motionMagneticFieldCalibrationAccuracy(Z),pedometerStartDate(txt),pedometerNumberofSteps(N),pedometerAverageActivePace(s/m),pedometerCurrentPace(s/m),pedometerCurrentCadence(steps/s),pedometerDistance(m),pedometerFloorAscended(N),pedometerFloorDescended(N),pedometerEndDate(txt),altimeterTimestamp_sinceReboot(s),altimeterReset(bool),altimeterRelativeAltitude(m),altimeterPressure(kPa),label
2026-05-26T16:00:10.312+02:00,1779804009.999796,53.23609491349372,10.40157582830295,26.00906,0,0.3080157,-1,-1,4.029364438188564,2.000344067697187,-9999,3877.937406916667,-0.1202392578125,-0.2576141357421875,-0.9916839599609375,3877.927330916667,-0.2954816718697877,0.09814247610276912,-0.08024151378704869,0.9329952597618103,-0.02250143326818943,-0.2536518573760986,-0.073284812271595,0.137732595205307,-0.08756774663925171,XArbitraryZVertical,-0.0324105159972739,0.05437539120383821,-0.1488544787757923,0.9868308169610095,-0.1120789721608162,-0.2621985375881195,-0.9584832787513733,0,0,0,-1,-1,2026-05-26T14:10:01.685+02:00,1671,1.093336,0,0,1393.844,0,0,2026-05-26T15:58:47.639+02:00,801496807.6966702,0,2.65,102.232,0
2026-05-26T16:00:10.314+02:00,1779804009.999796,53.23609491349372,10.40157582830295,26.00906,0,0.3080157,-1,-1,4.029364438188564,2.000344067697187,-9999,3877.947482916667,-0.0582733154296875,-0.449493408203125,-0.90936279296875,3877.937406916667,-0.00353019210362904,-0.0007281217242524009,0.005835120276260678,0.1810203641653061,-0.128384456038475,-0.4147545397281647,-0.06841792911291122,0.2106400728225708,-0.06357800960540771,XArbitraryZVertical,0.002916908893926443,-0.0003692085313092624,-0.001766149813191243,0.9999940382665018,-0.1118494123220444,-0.2681809365749359,-0.9568535089492798,0,0,0,-1,-1,2026-05-26T14:10:01.685+02:00,1671,1.093336,0,0,1393.844,0,0,2026-05-26T15:58:47.639+02:00,801496807.6966702,0,2.65,102.232,0
2026-05-26T16:00:10.316+02:00,1779804009.999796,53.23609491349372,10.40157582830295,26.00906,0,0.3080157,-1,-1,4.029364438188564,2.000344067697187,-9999,3877.957557916667,-0.025390625,-0.47412109375,-0.8683319091796875,3877.947482916667,-0.007883061494872449,-0.002655789571126177,0.003887660579008831,-0.544073224067688,-0.2787366509437561,-0.4417857527732849,0.001528039574623108,-0.0258653461933136,-0.02793437242507935,XArbitraryZVertical,0.001938578443358617,-0.001335543280225814,-0.00394409101333098,0.9999893970875028,-0.1125510036945343,-0.266798198223114,-0.9571577906608582,0,0,0,-1,-1,2026-05-26T14:10:01.685+02:00,1671,1.093336,0,0,1393.844,0,0,2026-05-26T15:58:47.639+02:00,801496810.2775888,0,2.61,102.2324,0
2026-05-26T16:00:10.317+02:00,1779804009.999796,53.23609491349372,10.40157582830295,26.00906,0,0.3080157,-1,-1,4.029364438188564,2.000344067697187,-9999,3877.967633916667,-0.0501251220703125,-0.3858184814453125,-0.87945556640625,3877.957557916667,-0.01223262585946395,-0.006238410546959225,-0.004097287634613663,-1.007750391960144,-0.4244563281536102,-0.3968864679336548,0.06281476467847824,-0.1989518105983734,0.05907702445983887,XArbitraryZVertical,-0.002067672050988527,-0.003106605482901884,-0.006109842507121263,0.9999743211356661,-0.1148472502827644,-0.2596205472946167,-0.9588572978973389,0,0,0,-1,-1,2026-05-26T14:10:01.685+02:00,1671,1.093336,0,0,1393.844,0,0,2026-05-26T15:58:47.639+02:00,801496810.2775888,0,2.61,102.2324,0
2026-05-26T16:00:10.323+02:00,1779804009.999796,53.23609491349372,10.40157582830295,26.00906,0,0.3080157,-1,-1,4.029364438188564,2.000344067697187,-9999,3877.977709916667,-0.10418701171875,-0.24346923828125,-0.8994293212890625,3877.967633916667,-0.01590831550366287,-0.01083973061303059,-0.015160235324479,-1.150170087814331,-0.4755900800228119,-0.3122338354587555,0.09334053844213486,-0.2202320396900177,0.09179419279098511,XArbitraryZVertical,-0.00762280284649674,-0.005359220490242275,-0.007912647556828916,0.9999252351299329,-0.118319183588028,-0.2493876963853836,-0.9611484408378601,0,0,0,-1,-1,2026-05-26T14:10:01.685+02:00,1671,1.093336,0,0,1393.844,0,0,2026-05-26T15:58:47.639+02:00,801496810.2775888,0,2.61,102.2324,0
2026-05-26T16:00:10.340+02:00,1779804009.999796,53.23609491349372,10.40157582830295,26.00906,0,0.3080157,-1,-1,4.029364438188564,2.000344067697187,-9999,3877.987785916667,-0.1670379638671875,-0.1951141357421875,-0.9168548583984375,3877.977709916667,-0.01899254290297712,-0.01545979049896254,-0.02563883091263022,-0.9086226224899292,-0.4293586611747742,-0.2760103046894073,0.06641117483377457,-0.127642497420311,0.08225226402282715,XArbitraryZVertical,-0.01289150084318944,-0.007607106861153285,-0.009395980304620716,0.9998438050355329,-0.1219836995005608,-0.2396212816238403,-0.9631726741790771,0,0,0,-1,-1,2026-05-26T14:10:01.685+02:00,1671,1.093336,0,0,1393.844,0,0,2026-05-26T15:58:47.639+02:00,801496810.2775888,0,2.61,102.2324,0
2026-05-26T16:00:10.343+02:00,1779804009.999796,53.23609491349372,10.40157582830295,26.00906,0,0.3080157,-1,-1,4.029364438188564,2.000344067697187,-9999,3877.997860916667,-0.2132568359375,-0.204742431640625,-0.9148406982421875,3877.987785916667,-0.02156430227976023,-0.01928898838933354,-0.0330875779089613,-0.5887197256088257,-0.3066295683383942,-0.1948025226593018,0.01296459138393402,0.002415791153907776,0.06236362457275391,XArbitraryZVertical,-0.01664527473314276,-0.009464107078002491,-0.01062042844697384,0.9997602083550527,-0.1250251531600952,-0.2327014207839966,-0.9644784927368164,0,0,0,-1,-1,2026-05-26T14:10:01.685+02:00,1671,1.093336,0,0,1393.844,0,0,2026-05-26T15:58:47.639+02:00,801496810.2775888,0,2.61,102.2324,0
2026-05-26T16:00:10.353+02:00,1779804009.999796,53.23609491349372,10.40157582830295,26.00906,0,0.3080157,-1,-1,4.029364438188564,2.000344067697187,-9999,3878.007936916667,-0.2215576171875,-0.0986328125,-0.9455108642578125,3877.997860916667,-0.01777969077400203,-0.02428661351130565,-0.03276717076983622,0.5045968890190125,-0.2352070361375809,0.7751854658126831,-0.0432153046131134,0.03640925884246826,0.04521143436431885,XArbitraryZVertical,-0.01648893268760416,-0.01199527182433037,-0.008688951565041092,0.9997542219437907,-0.1308417022228241,-0.2326067537069321,-0.9637295007705688,0,0,0,-1,-1,2026-05-26T14:10:01.685+02:00,1671,1.093336,0,0,1393.844,0,0,2026-05-26T15:58:47.639+02:00,801496810.2775888,0,2.61,102.2324,0
2026-05-26T16:00:10.363+02:00,1779804009.999796,53.23609491349372,10.40157582830295,26.00906,0,0.3080157,-1,-1,4.029364438188564,2.000344067697187,-9999,3878.018012916667,-0.2919464111328125,-0.0256195068359375,-0.9373779296875,3878.007936916667,-0.01336135607072534,-0.02518853000082406,-0.02878563377340069,0.2794330716133118,-0.08622874319553375,0.001951082842424512,-0.08298292756080627,0.03413337469100952,0.04791587591171265,XArbitraryZVertical,-0.01447498620940563,-0.01249620630809792,-0.006498155668748458,0.9997958806343875,-0.1328526735305786,-0.2359766215085983,-0.9626345038414001,0,0,0,-1,-1,2026-05-26T14:10:01.685+02:00,1671,1.093336,0,0,1393.844,0,0,2026-05-26T15:58:47.639+02:00,801496810.2775888,0,2.61,102.2324,0
2026-05-26T16:00:10.373+02:00,1779804009.999796,53.23609491349372,10.40157582830295,26.00906,0,0.3080157,-1,-1,4.029364438188564,2.000344067697187,-9999,3878.028088916667,-0.156402587890625,-0.1826019287109375,-0.8940887451171875,3878.018012916667,-0.01609880222155618,-0.02474769914557548,-0.02573943852345619,0.3570085465908051,0.08436030149459839,-0.4368361234664917,-0.09485861659049988,0.1617444306612015,0.007497131824493408,XArbitraryZVertical,-0.0129675538482059,-0.01226852826070197,-0.007888798077864816,0.99980939590653,-0.1316886097192764,-0.2392132729291916,-0.9619953632354736,0,0,0,-1,-1,2026-05-26T14:10:01.685+02:00,1671,1.093336,0,0,1393.844,0,0,2026-05-26T15:58:47.639+02:00,801496810.2775888,0,2.61,102.2324,0
2026-05-26T16:00:10.383+02:00,1779804009.999796,53.23609491349372,10.40157582830295,26.00906,0,0.3080157,-1,-1,4.029364438188564,2.000344067697187,-9999,3878.038163916667,0.0579681396484375,-0.282440185546875,-0.8977813720703125,3878.028088916667,-0.01928526756950789,-0.02581387661035716,-0.02192434573000425,0.3189863860607147,-0.2847205102443695,-0.1768349707126617,-0.1613330990076065,0.2058359533548355,0.03759396076202393,XArbitraryZVertical,-0.01108497469578723,-0.01279951282135054,-0.009499627140303564,0.9998115087345028,-0.1318492889404297,-0.2432352155447006,-0.9609643220901489,0,0,0,-1,-1,2026-05-26T14:10:01.685+02:00,1671,1.093336,0,0,1393.844,0,0,2026-05-26T15:58:47.639+02:00,801496810.2775888,0,2.61,102.2324,0
2026-05-26T16:00:10.393+02:00,1779804009.999796,53.23609491349372,10.40157582830295,26.00906,0,0.3080157,-1,-1,4.029364438188564,2.000344067697187,-9999,3878.048239916667,0.028717041015625,-0.2820587158203125,-0.83099365234375,3878.038163916667,-0.02023474988228141,-0.03028150605629116,-0.02021188520929424,0.01939461566507816,-0.5633450150489807,-0.06994473934173584,0.01283079385757446,0.04128232598304749,0.06000947952270508,XArbitraryZVertical,-0.01025726475938389,-0.01503639794297453,-0.009962531990238352,0.999784579450157,-0.1358776837587357,-0.2449871450662613,-0.9599575996398926,0,0,0,-1,-1,2026-05-26T14:10:01.685+02:00,1671,1.093336,0,0,1393.844,0,0,2026-05-26T15:58:47.639+02:00,801496810.2775888,0,2.61,102.2324,0
2026-05-26T16:00:10.403+02:00,1779804009.999796,53.23609491349372,10.40157582830295,26.00906,0,0.3080157,-1,-1,4.029364438188564,2.000344067697187,-9999,3878.058315916667,-0.1277313232421875,-0.2939605712890625,-0.84100341796875,3878.048239916667,-0.02184459317648223,-0.03577815530157848,-0.02084171666999149,-0.137520432472229,-0.5018653869628906,-0.2482745349407196,0.209045872092247,-0.04028412699699402,0.0706208348274231,XArbitraryZVertical,-0.01061374675490069,-0.01777228969229873,-0.01073334469184263,0.9997280203853024,-0.1407322734594345,-0.2445516586303711,-0.9593690037727356,0,0,0,-1,-1,2026-05-26T14:10:01.685+02:00,1671,1.093336,0,0,1393.844,0,0,2026-05-26T15:58:47.639+02:00,801496810.2775888,0,2.61,102.2324,0
2026-05-26T16:00:10.413+02:00,1779804009.999796,53.23609491349372,10.40157582830295,26.00906,0,0.3080157,-1,-1,4.029364438188564,2.000344067697187,-9999,3878.068391916667,-0.2021484375,-0.2733306884765625,-0.8401336669921875,3878.058315916667,-0.0248828892722915,-0.04028308197770714,-0.02262104954060746,-0.2427938580513,-0.3894386887550354,-0.3067509233951569,0.1547800451517105,-0.04028913378715515,0.1301882266998291,XArbitraryZVertical,-0.01155766592017553,-0.01999665009907116,-0.0122100321851982,0.9996585811039612,-0.1442667543888092,-0.2431581169366837,-0.9591982364654541,0,0,0,-1,-1,2026-05-26T14:10:01.685+02:00,1671,1.093336,0,0,1393.844,0,0,2026-05-26T15:58:47.639+02:00,801496810.2775888,0,2.61,102.2324,0
2026-05-26T16:00:10.423+02:00,1779804009.999796,53.23609491349372,10.40157582830295,26.00906,0,0.3080157,-1,-1,4.029364438188564,2.000344067697187,-9999,3878.078467916667,-0.1915130615234375,-0.230987548828125,-0.8232421875,3878.068391916667,-0.02775781316541952,-0.04394714120812174,-0.02534977911964814,-0.3185102939605713,-0.3306339681148529,-0.2352322340011597,0.00305117666721344,-0.05354426801204681,0.1159340143203735,XArbitraryZVertical,-0.01297518161509917,-0.02179206274952307,-0.01359554143546713,0.9995857765780656,-0.1470483839511871,-0.2408282607793808,-0.959363579750061,0,0,0,-1,-1,2026-05-26T14:10:01.685+02:00,1671,1.093336,0,0,1393.844,0,0,2026-05-26T15:58:47.639+02:00,801496810.2775888,0,2.61,102.2324,0
2026-05-26T16:00:10.433+02:00,1779804009.999796,53.23609491349372,10.40157582830295,26.00906,0,0.3080157,-1,-1,4.029364438188564,2.000344067697187,-9999,3878.088542916667,-0.169677734375,-0.2147674560546875,-0.8196868896484375,3878.078467916667,-0.03030359533389315,-0.04715266397483623,-0.02850988380519186,-0.3237143754959106,-0.3026598691940308,-0.2531526386737823,-0.05429701507091522,-0.02959555387496948,0.1218372583389282,XArbitraryZVertical,-0.0146060048970303,-0.02335313797702831,-0.01480947220751557,0.9995107238665031,-0.1494841277599335,-0.2380435913801193,-0.9596821069717407,0,0,0,-1,-1,2026-05-26T14:10:01.685+02:00,1671,1.093336,0,0,1393.844,0,0,2026-05-26T15:58:47.639+02:00,801496810.2775888,0,2.61,102.2324,0
2026-05-26T16:00:10.443+02:00,1779804009.999796,53.23609491349372,10.40157582830295,26.00906,0,0.3080157,-1,-1,4.029364438188564,2.000344067697187,-9999,3878.098618916667,-0.1456451416015625,-0.205352783203125,-0.8194427490234375,3878.088542916667,-0.03349750369343318,-0.05049312078843215,-0.03147321264025819,-0.298670619726181,-0.3505336046218872,-0.3475618362426758,-0.03585125505924225,0.007896557450294495,0.1375584602355957,XArbitraryZVertical,-0.01615146892366156,-0.02497375396706929,-0.01634337936519788,0.9994238940985904,-0.1518776267766953,-0.2355118989944458,-0.9599308967590332,0,0,0,-1,-1,2026-05-26T14:10:01.685+02:00,1671,1.093336,0,0,1393.844,0,0,2026-05-26T15:58:47.639+02:00,801496810.2775888,0,2.61,102.2324,0
2026-05-26T16:00:10.453+02:00,1779804009.999796,53.23609491349372,10.40157582830295,26.00906,0,0.3080157,-1,-1,4.029364438188564,2.000344067697187,-9999,3878.108694916667,-0.1373748779296875,-0.1900482177734375,-0.8192291259765625,3878.098618916667,-0.03736084844157286,-0.05436525943194,-0.03412140766921516,-0.2675734162330627,-0.3939180970191956,-0.3771977722644806,-0.01150541007518768,0.01987814903259277,0.1395745277404785,XArbitraryZVertical,-0.01755821617439448,-0.02685203690589238,-0.01820612604182363,0.9993193429130846,-0.1546017825603485,-0.2333485931158066,-0.960024356842041,0,0,0,-1,-1,2026-05-26T14:10:01.685+02:00,1671,1.093336,0,0,1393.844,0,0,2026-05-26T15:58:47.639+02:00,801496810.2775888,0,2.61,102.2324,0
2026-05-26T16:00:10.464+02:00,1779804009.999796,53.23609491349372,10.40157582830295,26.00906,0,0.3080157,-1,-1,4.029364438188564,2.000344067697187,-9999,3878.118770916667,-0.1608123779296875,-0.1893310546875,-0.8091278076171875,3878.108694916667,-0.04124933006648696,-0.05847497490862585,-0.03628950193925071,-0.2053370326757431,-0.3895172476768494,-0.3654934167861938,0.01526910066604614,0.02817068994045258,0.1403937339782715,XArbitraryZVertical,-0.01873493067059649,-0.0288482731477227,-0.02008070732308474,0.9992063881046216,-0.1575420349836349,-0.2316466271877289,-0.9599584937095642,0,0,0,-1,-1,2026-05-26T14:10:01.685+02:00,1671,1.093336,0,0,1393.844,0,0,2026-05-26T15:58:47.639+02:00,801496810.2775888,0,2.61,102.2324,0
2026-05-26T16:00:10.474+02:00,1779804009.999796,53.23609491349372,10.40157582830295,26.00906,0,0.3080157,-1,-1,4.029364438188564,2.000344067697187,-9999,3878.128845916667,-0.192535400390625,-0.1907501220703125,-0.7923736572265625,3878.118770916667,-0.04500261552458003,-0.06235187907738766,-0.0379833587588784,-0.1862602829933167,-0.3525570929050446,-0.356218695640564,0.02141812443733215,0.04123707115650177,0.1408529877662659,XArbitraryZVertical,-0.01967770654535636,-0.03073031330833767,-0.02189262003378028,0.9990940801208849,-0.1602883785963058,-0.2303850054740906,-0.9598074555397034,0,0,0,-1,-1,2026-05-26T14:10:01.685+02:00,1671,1.093336,0,0,1393.844,0,0,2026-05-26T15:58:47.639+02:00,801496810.2775888,0,2.61,102.2324,0
2026-05-26T16:00:10.484+02:00,1779804009.999796,53.23609491349372,10.40157582830295,26.00906,0,0.3080157,-1,-1,4.029364438188564,2.000344067697187,-9999,3878.138921916667,-0.2068634033203125,-0.187591552734375,-0.7845306396484375,3878.128845916667,-0.0487475783461154,-0.06578076896215591,-0.03959520103698818,-0.1712250262498856,-0.306161105632782,-0.3642458915710449,-0.002540439367294312,0.03898145258426666,0.1527562141418457,XArbitraryZVertical,-0.02058100879222998,-0.03238604633598296,-0.02370262675759967,0.9989822390710323,-0.1626054495573044,-0.2291975021362305,-0.9597020149230957,0,0,0,-1,-1,2026-05-26T14:10:01.685+02:00,1671,1.093336,0,0,1393.844,0,0,2026-05-26T15:58:47.639+02:00,801496810.2775888,0,2.61,102.2324,0
2026-05-26T16:00:10.494+02:00,1779804009.999796,53.23609491349372,10.40157582830295,26.00906,0,0.3080157,-1,-1,4.029364438188564,2.000344067697187,-9999,3878.148997916667,-0.197662353515625,-0.1998443603515625,-0.7882080078125,3878.138921916667,-0.05255891730084123,-0.06884007681824089,-0.04068114367513197,-0.09168732911348343,-0.2778439819812775,-0.3714313805103302,-0.0314423143863678,0.03874799609184265,0.1687159538269043,XArbitraryZVertical,-0.02122417667085198,-0.03386012354669957,-0.0255557457518739,0.998874202865859,-0.1645415872335434,-0.228521540760994,-0.9595332145690918,0,0,0,-1,-1,2026-05-26T14:10:01.685+02:00,1671,1.093336,0,0,1393.844,0,0,2026-05-26T15:58:47.639+02:00,801496810.2775888,0,2.61,102.2324,0
2026-05-26T16:00:10.504+02:00,1779804009.999796,53.23609491349372,10.40157582830295,26.00906,0,0.3080157,-1,-1,4.029364438188564,2.000344067697187,-9999,3878.159073916667,-0.1749725341796875,-0.2118988037109375,-0.793304443359375,3878.148997916667,-0.05624313450549665,-0.07179100505700345,-0.04103719249667338,-0.03656543046236038,-0.2844414412975311,-0.3518131673336029,-0.04039233922958374,0.04044106602668762,0.1743742823600769,XArbitraryZVertical,-0.02150471210708254,-0.0352895319350016,-0.02735781265669857,0.9987709655780564,-0.1663947850465775,-0.2285361438989639,-0.9592100977897644,0,0,0,-1,-1,2026-05-26T14:10:01.685+02:00,1671,1.093336,0,0,1393.844,0,0,2026-05-26T15:58:47.639+02:00,801496810.2775888,0,2.61,102.2324,0
2026-05-26T16:00:10.514+02:00,1779804009.999796,53.23609491349372,10.40157582830295,26.00906,0,0.3080157,-1,-1,4.029364438188564,2.000344067697187,-9999,3878.169149916667,-0.1613311767578125,-0.2141876220703125,-0.81512451171875,3878.159073916667,-0.05971509320847591,-0.07504227708925282,-0.04124106389998498,-0.06716994196176529,-0.3361094295978546,-0.3377349078655243,-0.02709038555622101,0.02712076902389526,0.170525074005127,XArbitraryZVertical,-0.02171500012309936,-0.03687253966213116,-0.02905263614370196,0.9986613622862243,-0.1685883402824402,-0.2286740988492966,-0.958794116973877,0,0,0,-1,-1,2026-05-26T14:10:01.685+02:00,1671,1.093336,0,0,1393.844,0,0,2026-05-26T15:58:47.639+02:00,801496810.2775888,0,2.61,102.2324,0
2026-05-26T16:00:10.524+02:00,1779804009.999796,53.23609491349372,10.40157582830295,26.00906,0,0.3080157,-1,-1,4.029364438188564,2.000344067697187,-9999,3878.179224916667,-0.1743927001953125,-0.2265472412109375,-0.823455810546875,3878.169149916667,-0.06326067427779689,-0.07885132636366876,-0.0419432322006285,-0.1227799952030182,-0.3898783624172211,-0.3551070392131805,-0.001364827156066895,0.01588499546051025,0.162999153137207,XArbitraryZVertical,-0.02218954587675745,-0.03872440955322161,-0.0307674090964644,0.9985295560238238,-0.1713036298751831,-0.2283330708742142,-0.9583939909934998,0,0,0,-1,-1,2026-05-26T14:10:01.685+02:00,1671,1.093336,0,0,1393.844,0,0,2026-05-26T15:58:47.639+02:00,801496810.2775888,0,2.61,102.2324,0
2026-05-26T16:00:10.534+02:00,1779804009.999796,53.23609491349372,10.40157582830295,26.00906,0,0.3080157,-1,-1,4.029364438188564,2.000344067697187,-9999,3878.189300916667,-0.200836181640625,-0.246917724609375,-0.8223724365234375,3878.179224916667,-0.06701742544210983,-0.08306484010957228,-0.04300843904499425,-0.1549714952707291,-0.4083932042121887,-0.3669359982013702,0.01299315690994263,0.01298068463802338,0.1404387354850769,XArbitraryZVertical,-0.02286267671318824,-0.04076781378471048,-0.03257351869410059,0.9983757405722379,-0.1743548512458801,-0.2276565730571747,-0.9580046534538269,0,0,0,-1,-1,2026-05-26T14:10:01.685+02:00,1671,1.093336,0,0,1393.844,0,0,2026-05-26T15:58:47.639+02:00,801496810.2775888,0,2.61,102.2324,0
2026-05-26T16:00:10.545+02:00,1779804009.999796,53.23609491349372,10.40157582830295,26.00906,0,0.3080157,-1,-1,4.029364438188564,2.000344067697187,-9999,3878.199376916667,-0.216796875,-0.24530029296875,-0.7948760986328125,3878.189300916667,-0.07083223488725802,-0.08735363218705304,-0.04468359197960721,-0.2533924281597137,-0.4146404564380646,-0.3574926853179932,-0.0002308040857315063,-0.002827480435371399,0.1337880492210388,XArbitraryZVertical,-0.02385030147918553,-0.04283439011303111,-0.03439130475883449,0.9982051013154974,-0.1774730682373047,-0.2263900339603424,-0.9577321410179138,0,0,0,-1,-1,2026-05-26T14:10:01.685+02:00,1671,1.093336,0,0,1393.844,0,0,2026-05-26T15:58:47.639+02:00,801496810.2775888,0,2.61,102.2324,0
2026-05-26T16:00:10.554+02:00,1779804009.999796,53.23609491349372,10.40157582830295,26.00906,0,0.3080157,-1,-1,4.029364438188564,2.000344067697187,-9999,3878.209452916667,-0.2288818359375,-0.2120208740234375,-0.7514495849609375,3878.199376916667,-0.07480879268121426,-0.09186736037137226,-0.0476532454298159,-0.4075694680213928,-0.4537750780582428,-0.3824736773967743,-0.0221220999956131,-0.02497757971286774,0.1364438533782959,XArbitraryZVertical,-0.0254992255187183,-0.04498240395896859,-0.03625244105539444,0.9980039573888698,-0.1807892918586731,-0.2238779962062836,-0.9577023983001709,0,0,0,-1,-1,2026-05-26T14:10:01.685+02:00,1671,1.093336,0,0,1393.844,0,0,2026-05-26T15:58:47.639+02:00,801496810.2775888,0,2.61,102.2324,0
2026-05-26T16:00:10.565+02:00,1779804009.999796,53.23609491349372,10.40157582830295,26.00906,0,0.3080157,-1,-1,4.029364438188564,2.000344067697187,-9999,3878.219527916667,-0.238983154296875,-0.1700592041015625,-0.7188720703125,3878.209452916667,-0.07950551145216161,-0.09680831571969678,-0.05189638735130893,-0.5018632411956787,-0.4776050448417664,-0.4686570167541504,-0.03446131944656372,-0.0218159407377243,0.1688012480735779,XArbitraryZVertical,-0.02781671581823141,-0.04730084371647106,-0.03842800079777769,0.9977534679074618,-0.1843497157096863,-0.2201884388923645,-0.9578790068626404,0,0,0,-1,-1,2026-05-26T14:10:01.685+02:00,1671,1.093336,0,0,1393.844,0,0,2026-05-26T15:58:47.639+02:00,801496810.2775888,0,2.61,102.2324,0
2026-05-26T16:00:10.575+02:00,1779804009.999796,53.23609491349372,10.40157582830295,26.00906,0,0.3080157,-1,-1,4.029364438188564,2.000344067697187,-9999,3878.229603916667,-0.2425994873046875,-0.150421142578125,-0.710235595703125,3878.219527916667,-0.0850805734355574,-0.1018631374534474,-0.05614094173079729,-0.4231268763542175,-0.4643350541591644,-0.5430585741996765,-0.04193519055843353,0.009855061769485474,0.2116079926490784,XArbitraryZVertical,-0.0301692352568105,-0.04965140058728228,-0.04102800817202598,0.9974673059667962,-0.1877858936786652,-0.2165658622980118,-0.9580374360084534,0,0,0,-1,-1,2026-05-26T14:10:01.685+02:00,1671,1.093336,0,0,1393.844,0,0,2026-05-26T15:58:47.639+02:00,801496810.2775888,0,2.61,102.2324,0
2026-05-26T16:00:10.585+02:00,1779804009.999796,53.23609491349372,10.40157582830295,26.00906,0,0.3080157,-1,-1,4.029364438188564,2.000344067697187,-9999,3878.239679916667,-0.2357635498046875,-0.1585235595703125,-0.736663818359375,3878.229603916667,-0.0910344115127559,-0.1066900496616171,-0.05898874833785026,-0.2858826518058777,-0.4316561818122864,-0.5638538002967834,-0.04969799518585205,0.04856675863265991,0.2418674826622009,XArbitraryZVertical,-0.03184272408576735,-0.05190140805178041,-0.04384623161410978,0.9971808030910548,-0.1908720731735229,-0.214322954416275,-0.9579318761825562,0,0,0,-1,-1,2026-05-26T14:10:01.685+02:00,1671,1.093336,0,0,1393.844,0,0,2026-05-26T15:58:47.639+02:00,801496810.2775888,0,2.61,102.2324,0
2026-05-26T16:00:10.595+02:00,1779804009.999796,53.23609491349372,10.40157582830295,26.00906,0,0.3080157,-1,-1,4.029364438188564,2.000344067697187,-9999,3878.249755916667,-0.238739013671875,-0.2114715576171875,-0.731597900390625,3878.239679916667,-0.09743855546526667,-0.1116095375998104,-0.06115590071326871,-0.2714813351631165,-0.4811563491821289,-0.6882460713386536,-0.04779009521007538,0.06286744773387909,0.2457998394966125,XArbitraryZVertical,-0.03320438864092404,-0.05419699383976245,-0.04689824935533927,0.9968753808145849,-0.1939091235399246,-0.2127697765827179,-0.957668125629425,0,0,0,-1,-1,2026-05-26T14:10:01.685+02:00,1671,1.093336,0,0,1393.844,0,0,2026-05-26T15:58:47.639+02:00,801496810.2775888,0,2.61,102.2324,0
2026-05-26T16:00:10.605+02:00,1779804009.999796,53.23609491349372,10.40157582830295,26.00906,0,0.3080157,-1,-1,4.029364438188564,2.000344067697187,-9999,3878.259830916667,-0.263153076171875,-0.322113037109375,-0.745208740234375,3878.249755916667,-0.1051355444517238,-0.1164680252453005,-0.06201745388816714,-0.04266726598143578,-0.3350071310997009,-0.7294011116027832,-0.03793127834796906,0.05134442448616028,0.2168237566947937,XArbitraryZVertical,-0.03396507699685188,-0.05646648803270325,-0.05062732717064215,0.9965412617407057,-0.1965047717094421,-0.2125840336084366,-0.9571802020072937,0,0,0,-1,-1,2026-05-26T14:10:01.685+02:00,1671,1.093336,0,0,1393.844,0,0,2026-05-26T15:58:47.639+02:00,801496810.2775888,0,2.61,102.2324,0
2026-05-26T16:00:10.616+02:00,1779804009.999796,53.23609491349372,10.40157582830295,26.00906,0,0.3080157,-1,-1,4.029364438188564,2.000344067697187,-9999,3878.269906916667,-0.1794281005859375,-0.3668060302734375,-0.7664794921875,3878.259830916667,-0.1116360137345905,-0.1202014204178544,-0.06146967173396197,-0.04331468045711517,-0.3652923405170441,-0.6015579104423523,-0.04446081817150116,-0.01064792275428772,0.2288475036621094,XArbitraryZVertical,-0.03397610050463146,-0.05823136535325082,-0.0538190906479623,0.9962721672886873,-0.198306530714035,-0.2136562615633011,-0.9565696716308594,0,0,0,-1,-1,2026-05-26T14:10:01.685+02:00,1671,1.093336,0,0,1393.844,0,0,2026-05-26T15:58:47.639+02:00,801496810.2775888,0,2.61,102.2324,0
2026-05-26T16:00:10.625+02:00,1779804009.999796,53.23609491349372,10.40157582830295,26.00906,0,0.3080157,-1,-1,4.029364438188564,2.000344067697187,-9999,3878.279982916667,-0.133941650390625,-0.381500244140625,-0.7237701416015625,3878.269906916667,-0.1179411623068733,-0.1249344365355671,-0.06173321213710826,-0.1534429937601089,-0.503046989440918,-0.6256168484687805,-0.0582970529794693,-0.1195236444473267,0.2024738788604736,XArbitraryZVertical,-0.03442541797574315,-0.06047307293824276,-0.05687019646585335,0.9959536288532237,-0.2011328637599945,-0.2139113992452621,-0.9559223055839539,0,0,0,-1,-1,2026-05-26T14:10:01.685+02:00,1671,1.093336,0,0,1393.844,0,0,2026-05-26T15:58:47.639+02:00,801496810.2775888,0,2.61,102.2324,0
2026-05-26T16:00:10.635+02:00,1779804009.999796,53.23609491349372,10.40157582830295,26.00906,0,0.3080157,-1,-1,4.029364438188564,2.000344067697187,-9999,3878.290058916667,-0.1491546630859375,-0.397735595703125,-0.7193145751953125,3878.279982916667,-0.1245684761762901,-0.1312872915231324,-0.06289271710877682,-0.2812123894691467,-0.7042338848114014,-0.6789383888244629,0.03740939497947693,-0.1546876728534698,0.1939409971237183,XArbitraryZVertical,-0.03539359535158817,-0.06348414339421767,-0.06002077925376624,0.9955473322531037,-0.2054391950368881,-0.2133085280656815,-0.9551409482955933,0,0,0,-1,-1,2026-05-26T14:10:01.685+02:00,1671,1.093336,0,0,1393.844,0,0,2026-05-26T15:58:47.639+02:00,801496810.2775888,0,2.61,102.2324,0
2026-05-26T16:00:10.645+02:00,1779804009.999796,53.23609491349372,10.40157582830295,26.00906,0,0.3080157,-1,-1,4.029364438188564,2.000344067697187,-9999,3878.300134916667,-0.2142181396484375,-0.36932373046875,-0.7195587158203125,3878.290058916667,-0.1318399525602242,-0.138935049289705,-0.06567824010341865,-0.4259881377220154,-0.6686618328094482,-0.6131117343902588,0.07738016545772552,-0.1734850853681564,0.2328514456748962,XArbitraryZVertical,-0.03725272506416441,-0.06706598470520291,-0.06340387927734478,0.9950348429105742,-0.2108488082885742,-0.2111584544181824,-0.9544395804405212,0,0,0,-1,-1,2026-05-26T14:10:01.685+02:00,1671,1.093336,0,0,1393.844,0,0,2026-05-26T15:58:47.639+02:00,801496810.2775888,0,2.61,102.2324,0
2026-05-26T16:00:10.655+02:00,1779804009.999796,53.23609491349372,10.40157582830295,26.00906,0,0.3080157,-1,-1,4.029364438188564,2.000344067697187,-9999,3878.310209916667,-0.23565673828125,-0.281463623046875,-0.760040283203125,3878.300134916667,-0.137983727409345,-0.1458852673080272,-0.06957493837169487,-0.5191441774368286,-0.6598041653633118,-0.5343985557556152,0.06065608561038971,-0.1899113357067108,0.2357279062271118,XArbitraryZVertical,-0.03962640719820989,-0.07026931780940167,-0.06618353895596772,0.9945408910062266,-0.2159295231103897,-0.207824245095253,-0.9540354013442993,0,0,0,-1,-1,2026-05-26T14:10:01.685+02:00,1671,1.093336,0,0,1393.844,0,0,2026-05-26T15:58:47.639+02:00,801496810.2775888,0,2.61,102.2324,0
2026-05-26T16:00:10.665+02:00,1779804009.999796,53.23609491349372,10.40157582830295,26.00906,0,0.3080157,-1,-1,4.029364438188564,2.000344067697187,-9999,3878.320285916667,-0.27960205078125,-0.202728271484375,-0.77154541015625,3878.310209916667,-0.1447611969063441,-0.1532955689512126,-0.07388855573709449,-0.5057221651077271,-0.7035531997680664,-0.6545366644859314,0.001960083842277527,-0.1566174477338791,0.2300969362258911,XArbitraryZVertical,-0.04226477307540648,-0.07365689080467219,-0.06923501738861162,0.9939792355061567,-0.2212899178266525,-0.2041155695915222,-0.9536076784133911,0,0,0,-1,-1,2026-05-26T14:10:01.685+02:00,1671,1.093336,0,0,1393.844,0,0,2026-05-26T15:58:47.639+02:00,801496810.2775888,0,2.61,102.2324,0
2026-05-26T16:00:10.675+02:00,1779804009.999796,53.23609491349372,10.40157582830295,26.00906,0,0.3080157,-1,-1,4.029364438188564,2.000344067697187,-9999,3878.330361916667,-0.3029022216796875,-0.1695709228515625,-0.7765350341796875,3878.320285916667,-0.1522081633534915,-0.1606363303290808,-0.07731616673928206,-0.4029369056224823,-0.6393923163414001,-0.6897004842758179,-0.01286895573139191,-0.06786178052425385,0.1894012093544006,XArbitraryZVertical,-0.04450788135849412,-0.07701085026030478,-0.07263705975760983,0.9933840991944467,-0.2263735830783844,-0.2013032585382462,-0.9530120491981506,0,0,0,-1,-1,2026-05-26T14:10:01.685+02:00,1671,1.093336,0,0,1393.844,0,0,2026-05-26T15:58:47.639+02:00,801496810.2775888,0,2.61,102.2324,0
2026-05-26T16:00:10.685+02:00,1779804009.999796,53.23609491349372,10.40157582830295,26.00906,0,0.3080157,-1,-1,4.029364438188564,2.000344067697187,-9999,3878.340437916667,-0.3008270263671875,-0.181549072265625,-0.7798309326171875,3878.330361916667,-0.1599075022715722,-0.1673661026757051,-0.07991496184414484,-0.3587855994701385,-0.5764197111129761,-0.7278352379798889,-0.05459277331829071,0.002340197563171387,0.1796257495880127,XArbitraryZVertical,-0.04635042191881204,-0.08007256641664834,-0.07619727749230021,0.9927908616259401,-0.2307771295309067,-0.1993006318807602,-0.9523766040802002,0,0,0,-1,-1,2026-05-26T14:10:01.685+02:00,1671,1.093336,0,0,1393.844,0,0,2026-05-26T15:58:47.639+02:00,801496810.2775888,0,2.61,102.2324,0
2026-05-26T16:00:10.695+02:00,1779804009.999796,53.23609491349372,10.40157582830295,26.00906,0,0.3080157,-1,-1,4.029364438188564,2.000344067697187,-9999,3878.350512916667,-0.2913970947265625,-0.2510528564453125,-0.80291748046875,3878.340437916667,-0.1679927675346254,-0.1737296922563622,-0.08182464360521566,-0.2843965888023376,-0.5614826083183289,-0.78641277551651,-0.06875105202198029,0.03080448508262634,0.175386905670166,XArbitraryZVertical,-0.04787554787055205,-0.08295889183897853,-0.07997551096382856,0.9921842312132558,-0.2347004860639572,-0.1979797780513763,-0.951693058013916,0,0,0,-1,-1,2026-05-26T14:10:01.685+02:00,1671,1.093336,0,0,1393.844,0,0,2026-05-26T15:58:47.639+02:00,801496810.2775888,0,2.61,102.2324,0
2026-05-26T16:00:10.706+02:00,1779804009.999796,53.23609491349372,10.40157582830295,26.00906,0,0.3080157,-1,-1,4.029364438188564,2.000344067697187,-9999,3878.360588916667,-0.27398681640625,-0.3314056396484375,-0.802093505859375,3878.350512916667,-0.1765700944143488,-0.1801028606781788,-0.08294121286502143,-0.2436470836400986,-0.5687661170959473,-0.837390661239624,-0.06200927495956421,0.009947329759597778,0.1695407629013062,XArbitraryZVertical,-0.04905225891621891,-0.0858619013649644,-0.08402380566128173,0.9915449325037963,-0.2384668290615082,-0.1974473148584366,-0.9508670568466187,0,0,0,-1,-1,2026-05-26T14:10:01.685+02:00,1671,1.093336,0,0,1393.844,0,0,2026-05-26T15:58:47.639+02:00,801496810.2775888,0,2.61,102.2324,0
2026-05-26T16:00:10.716+02:00,1779804009.999796,53.23609491349372,10.40157582830295,26.00906,0,0.3080157,-1,-1,4.029364438188564,2.000344067697187,-9999,3878.370664916667,-0.266204833984375,-0.3793182373046875,-0.808074951171875,3878.360588916667,-0.1854003781807392,-0.1866030884098336,-0.08393735927857354,-0.2804077565670013,-0.5794264674186707,-0.8351885080337524,-0.04703196883201599,-0.06534726917743683,0.1451510190963745,XArbitraryZVertical,-0.05021109186428804,-0.08881763971702347,-0.08819158341373731,0.9908644055985799,-0.242274671792984,-0.1970275938510895,-0.9499911069869995,0,0,0,-1,-1,2026-05-26T14:10:01.685+02:00,1671,1.093336,0,0,1393.844,0,0,2026-05-26T15:58:47.639+02:00,801496810.2775888,0,2.61,102.2324,0
2026-05-26T16:00:10.726+02:00,1779804009.999796,53.23609491349372,10.40157582830295,26.00906,0,0.3080157,-1,-1,4.029364438188564,2.000344067697187,-9999,3878.380740916667,-0.26123046875,-0.383453369140625,-0.778900146484375,3878.370664916667,-0.1941734606087452,-0.1931039635646228,-0.08530163550866922,-0.3003300130367279,-0.5601161122322083,-0.8161888122558594,-0.02617147564888,-0.1434993892908096,0.1470637321472168,XArbitraryZVertical,-0.0515756185908269,-0.09174699122254004,-0.09230405403961459,0.9901525827914701,-0.24610635638237,-0.1962222754955292,-0.9491724967956543,0,0,0,-1,-1,2026-05-26T14:10:01.685+02:00,1671,1.093336,0,0,1393.844,0,0,2026-05-26T15:58:47.639+02:00,801496810.2775888,0,2.61,102.2324,0
2026-05-26T16:00:10.757+02:00,1779804009.999796,53.23609491349372,10.40157582830295,26.00906,0,0.3080157,-1,-1,4.029364438188564,2.000344067697187,-9999,3878.390816916667,-0.25933837890625,-0.3343963623046875,-0.7348785400390625,3878.380740916667,-0.2026580730507483,-0.1992959226125179,-0.08657209500806458,-0.2834029793739319,-0.5331862568855286,-0.7768056988716125,-0.015528604388237,-0.1875860542058945,0.1397604942321777,XArbitraryZVertical,-0.05289087576252438,-0.09452459375221592,-0.09627683806566356,0.9894433868021889,-0.2497149258852005,-0.1954705864191055,-0.9483847618103027,0,0,0,-1,-1,2026-05-26T14:10:01.685+02:00,1671,1.093336,0,0,1393.844,0,0,2026-05-26T15:58:47.639+02:00,801496810.2775888,0,2.61,102.2324,0
2026-05-26T16:00:10.758+02:00,1779804009.999796,53.23609491349372,10.40157582830295,26.00906,0,0.3080157,-1,-1,4.029364438188564,2.000344067697187,-9999,3878.400891916667,-0.258758544921875,-0.252471923828125,-0.7047119140625,3878.390816916667,-0.2107028537697463,-0.2052116359967833,-0.08774782552780235,-0.2608950734138489,-0.4999026358127594,-0.7314508557319641,-0.007202625274658203,-0.1866261810064316,0.1754106879234314,XArbitraryZVertical,-0.0541476708796167,-0.09717208093428896,-0.1000354662386422,0.9887458770835661,-0.2531733512878418,-0.1947672367095947,-0.9476122260093689,0,0,0,-1,-1,2026-05-26T14:10:01.685+02:00,1671,1.093336,0,0,1393.844,0,0,2026-05-26T15:58:47.639+02:00,801496810.2775888,0,2.61,102.2324,0
2026-05-26T16:00:10.759+02:00,1779804009.999796,53.23609491349372,10.40157582830295,26.00906,0,0.3080157,-1,-1,4.029364438188564,2.000344067697187,-9999,3878.410967916667,-0.255096435546875,-0.2040557861328125,-0.6878204345703125,3878.400891916667,-0.2183388317698751,-0.2106561699933457,-0.08875463287551202,-0.2590279579162598,-0.4537833333015442,-0.7109282612800598,-0.00206032395362854,-0.130334347486496,0.2151585817337036,XArbitraryZVertical,-0.0552975669999874,-0.09959803485896236,-0.1036059862576776,0.9880729317721384,-0.256286233663559,-0.1941895484924316,-0.9468937516212463,0,0,0,-1,-1,2026-05-26T14:10:01.685+02:00,1671,1.093336,0,0,1393.844,0,0,2026-05-26T15:58:47.639+02:00,801496810.2775888,0,2.61,102.2324,0
2026-05-26T16:00:10.767+02:00,1779804009.999796,53.23609491349372,10.40157582830295,26.00906,0,0.3080157,-1,-1,4.029364438188564,2.000344067697187,-9999,3878.421043916667,-0.24969482421875,-0.2138519287109375,-0.6644134521484375,3878.410967916667,-0.2260039020660523,-0.2156981616945678,-0.09007895821504477,-0.3148173689842224,-0.4133669435977936,-0.7157368063926697,0.0007342696189880371,-0.05074815452098846,0.2451323270797729,XArbitraryZVertical,-0.056602537436351,-0.1017976436331579,-0.1071772690476241,0.9873936709435599,-0.2590197920799255,-0.1932856440544128,-0.9463347196578979,0,0,0,-1,-1,2026-05-26T14:10:01.685+02:00,1671,1.093336,0,0,1393.844,0,0,2026-05-26T15:58:47.639+02:00,801496810.2775888,0,2.61,102.2324,0
2026-05-26T16:00:10.776+02:00,1779804009.999796,53.23609491349372,10.40157582830295,26.00906,0,0.3080157,-1,-1,4.029364438188564,2.000344067697187,-9999,3878.431119916667,-0.24432373046875,-0.2744140625,-0.6322174072265625,3878.421043916667,-0.2339107435149342,-0.2203876826457704,-0.0919862273967193,-0.4080152213573456,-0.3693584501743317,-0.7233436107635498,0.006950885057449341,-0.009748205542564392,0.2598613500595093,XArbitraryZVertical,-0.058204685689529,-0.1037717557212249,-0.1108369568286145,0.9866907540924443,-0.2613759636878967,-0.1918051242828369,-0.9459880590438843,0,0,0,-1,-1,2026-05-26T14:10:01.685+02:00,1671,1.093336,0,0,1393.844,0,0,2026-05-26T15:58:47.639+02:00,801496810.2775888,0,2.61,102.2324,0
2026-05-26T16:00:10.786+02:00,1779804009.999796,53.23609491349372,10.40157582830295,26.00906,0,0.3080157,-1,-1,4.029364438188564,2.000344067697187,-9999,3878.441194916667,-0.2350616455078125,-0.3090057373046875,-0.640594482421875,3878.431119916667,-0.2419934702536973,-0.2245728511979855,-0.09488402586896996,-0.4790452718734741,-0.3159580826759338,-0.7128323912620544,0.01408687233924866,-0.03023107349872589,0.2863734364509583,XArbitraryZVertical,-0.06029051292765151,-0.1054181149096002,-0.1145315891817976,0.985968765986653,-0.2632476389408112,-0.1893428862094879,-0.9459651112556458,0,0,0,-1,-1,2026-05-26T14:10:01.685+02:00,1671,1.093336,0,0,1393.844,0,0,2026-05-26T15:58:47.639+02:00,801496810.2775888,0,2.61,102.2324,0
2026-05-26T16:00:10.796+02:00,1779804009.999796,53.23609491349372,10.40157582830295,26.00906,0,0.3080157,-1,-1,4.029364438188564,2.000344067697187,-9999,3878.451270916667,-0.19805908203125,-0.2676544189453125,-0.6331329345703125,3878.441194916667,-0.2502412984150898,-0.228367168907246,-0.09788918697629431,-0.4779496490955353,-0.2929443717002869,-0.7361246347427368,0.02033919095993042,-0.09497590363025665,0.3153941035270691,XArbitraryZVertical,-0.06242799928471124,-0.1068437647145056,-0.1183026009830147,0.985236752650307,-0.2647086977958679,-0.1867623627185822,-0.9460703730583191,0,0,0,-1,-1,2026-05-26T14:10:01.685+02:00,1671,1.093336,0,0,1393.844,0,0,2026-05-26T15:58:47.639+02:00,801496810.2775888,0,2.61,102.2324,0
2026-05-26T16:00:10.806+02:00,1779804009.999796,53.23609491349372,10.40157582830295,26.00906,0,0.3080157,-1,-1,4.029364438188564,2.000344067697187,-9999,3878.461346916667,-0.1670074462890625,-0.19549560546875,-0.6045074462890625,3878.451270916667,-0.2585921533570944,-0.232178509811493,-0.1008791470707908,-0.4565054476261139,-0.2935590445995331,-0.7318174839019775,0.03416216373443604,-0.1241848170757294,0.3034548759460449,XArbitraryZVertical,-0.06457633589209276,-0.1082588007893968,-0.1221142884143188,0.984478478380285,-0.2661568224430084,-0.1841800361871719,-0.9461703300476074,0,0,0,-1,-1,2026-05-26T14:10:01.685+02:00,1671,1.093336,0,0,1393.844,0,0,2026-05-26T15:58:47.639+02:00,801496810.2775888,0,2.61,102.2324,0
2026-05-26T16:00:10.816+02:00,1779804009.999796,53.23609491349372,10.40157582830295,26.00906,0,0.3080157,-1,-1,4.029364438188564,2.000344067697187,-9999,3878.471422916667,-0.1511688232421875,-0.1903533935546875,-0.624786376953125,3878.461346916667,-0.2667084428260658,-0.2360061185258026,-0.1030985788239508,-0.3461413979530334,-0.3204074501991272,-0.7250540852546692,0.07455152273178101,-0.07528984546661377,0.3173086643218994,XArbitraryZVertical,-0.06634626441884822,-0.1097258506006193,-0.1258469789218656,0.9837280670502747,-0.2676515281200409,-0.1823242753744125,-0.9461081027984619,0,0,0,-1,-1,2026-05-26T14:10:01.685+02:00,1671,1.093336,0,0,1393.844,0,0,2026-05-26T15:58:47.639+02:00,801496810.2775888,0,2.61,102.2324,0
2026-05-26T16:00:10.826+02:00,1779804009.999796,53.23609491349372,10.40157582830295,26.00906,0,0.3080157,-1,-1,4.029364438188564,2.000344067697187,-9999,3878.481498916667,-0.1467742919921875,-0.187652587890625,-0.607269287109375,3878.471422916667,-0.2745949947678835,-0.240587808356667,-0.104331552815261,-0.2655965387821198,-0.4217143356800079,-0.7327435612678528,0.1052219569683075,-0.00956900417804718,0.3398921489715576,XArbitraryZVertical,-0.06768037356422719,-0.1116280578241964,-0.1294942652717598,0.9829494088605433,-0.2698795795440674,-0.1814099848270416,-0.9456508159637451,0,0,0,-1,-1,2026-05-26T14:10:01.685+02:00,1671,1.093336,0,0,1393.844,0,0,2026-05-26T15:58:47.639+02:00,801496810.2775888,0,2.61,102.2324,0
2026-05-26T16:00:10.853+02:00,1779804009.999796,53.23609491349372,10.40157582830295,26.00906,0,0.3080157,-1,-1,4.029364438188564,2.000344067697187,-9999,3878.491573916667,-0.16522216796875,-0.15130615234375,-0.5769805908203125,3878.481498916667,-0.2823883050565126,-0.2459970830631698,-0.1050844461335222,-0.2566549777984619,-0.4821803271770477,-0.7233074307441711,0.1236160695552826,-0.01106996834278107,0.3182418346405029,XArbitraryZVertical,-0.0688442091804745,-0.1139653091184812,-0.1330903535931052,0.9821197577285173,-0.2728927731513977,-0.1809466332197189,-0.9448745250701904,0,0,0,-1,-1,2026-05-26T14:10:01.685+02:00,1671,1.093336,0,0,1393.844,0,0,2026-05-26T15:58:47.639+02:00,801496810.2775888,0,2.61,102.2324,0
2026-05-26T16:00:10.857+02:00,1779804009.999796,53.23609491349372,10.40157582830295,26.00906,0,0.3080157,-1,-1,4.029364438188564,2.000344067697187,-9999,3878.501649916667,-0.2013092041015625,-0.1222381591796875,-0.625823974609375,3878.491573916667,-0.2900033308441042,-0.2516580620431114,-0.1056847298906019,-0.2206102013587952,-0.4760108590126038,-0.7033246755599976,0.1290268003940582,-0.003761664032936096,0.3418097496032715,XArbitraryZVertical,-0.06995859567314321,-0.1164353947670659,-0.1365926893915771,0.9812700576092149,-0.2761825621128082,-0.1806102693080902,-0.9439826011657715,0,0,0,-1,-1,2026-05-26T14:10:01.685+02:00,1671,1.093336,0,0,1393.844,0,0,2026-05-26T15:58:47.639+02:00,801496810.2775888,0,2.61,102.2324,0
2026-05-26T16:00:10.859+02:00,1779804009.999796,53.23609491349372,10.40157582830295,26.00906,0,0.3080157,-1,-1,4.029364438188564,2.000344067697187,-9999,3878.511725916667,-0.2349853515625,-0.131561279296875,-0.674652099609375,3878.501649916667,-0.297292566114242,-0.2568679497301537,-0.1057285802442368,-0.1550682187080383,-0.397724837064743,-0.6867659091949463,0.1101310551166534,0.03505802154541016,0.3647633790969849,XArbitraryZVertical,-0.07076883308787274,-0.1187307268779667,-0.1399813638068726,0.9804590571508692,-0.2791068851947784,-0.1807947009801865,-0.9430867433547974,0,0,0,-1,-1,2026-05-26T14:10:01.685+02:00,1671,1.093336,0,0,1393.844,0,0,2026-05-26T15:58:47.639+02:00,801496810.2775888,0,2.61,102.2324,0
2026-05-26T16:00:10.867+02:00,1779804009.999796,53.23609491349372,10.40157582830295,26.00906,0,0.3080157,-1,-1,4.029364438188564,2.000344067697187,-9999,3878.521802291667,-0.2371826171875,-0.155517578125,-0.679473876953125,3878.511725916667,-0.3043013469230617,-0.2610512250134968,-0.1055421826074936,-0.1775611639022827,-0.2812200784683228,-0.6599686145782471,0.07545271515846252,0.05924957990646362,0.3089284896850586,XArbitraryZVertical,-0.07139318829407953,-0.1205460874420981,-0.1432799232216643,0.9797154435737716,-0.2811259329319,-0.1811825484037399,-0.9424123764038086,0,0,0,-1,-1,2026-05-26T14:10:01.685+02:00,1671,1.093336,0,0,1393.844,0,0,2026-05-26T15:58:47.639+02:00,801496810.2775888,0,2.61,102.2324,0
2026-05-26T16:00:10.877+02:00,1779804009.999796,53.23609491349372,10.40157582830295,26.00906,0,0.3080157,-1,-1,4.029364438188564,2.000344067697187,-9999,3878.531877291667,-0.19940185546875,-0.1864471435546875,-0.5847930908203125,3878.521802291667,-0.3112245415628171,-0.264078794750678,-0.1058891299893363,-0.2540551424026489,-0.1853175163269043,-0.6376728415489197,0.04455378651618958,0.0462644100189209,0.2639119029045105,XArbitraryZVertical,-0.07220144485287597,-0.1217526018568842,-0.1465376223138959,0.9790249648582409,-0.2821026146411896,-0.1810300350189209,-0.942149817943573,0,0,0,-1,-1,2026-05-26T14:10:01.685+02:00,1671,1.093336,0,0,1393.844,0,0,2026-05-26T15:58:47.639+02:00,801496810.2775888,0,2.61,102.2324,0
2026-05-26T16:00:10.887+02:00,1779804009.999796,53.23609491349372,10.40157582830295,26.00906,0,0.3080157,-1,-1,4.029364438188564,2.000344067697187,-9999,3878.541953291667,-0.1342926025390625,-0.185791015625,-0.5163116455078125,3878.531877291667,-0.3180056131451401,-0.2666010450687384,-0.1073313022020477,-0.3721688389778137,-0.1866008937358856,-0.5733442902565002,0.04818123579025269,0.02064961194992065,0.2690699100494385,XArbitraryZVertical,-0.07350663088302917,-0.1226230053062733,-0.1496639792846327,0.9783460127513015,-0.2826935648918152,-0.1797835230827332,-0.9422113299369812,0,0,0,-1,-1,2026-05-26T14:10:01.685+02:00,1671,1.093336,0,0,1393.844,0,0,2026-05-26T15:58:47.639+02:00,801496810.2775888,0,2.61,102.2324,0
2026-05-26T16:00:10.897+02:00,1779804009.999796,53.23609491349372,10.40157582830295,26.00906,0,0.3080157,-1,-1,4.029364438188564,2.000344067697187,-9999,3878.552029291667,-0.0750885009765625,-0.13641357421875,-0.520233154296875,3878.541953291667,-0.3244335368707769,-0.2696888873703681,-0.1100231810577433,-0.4757426381111145,-0.2896929085254669,-0.517169177532196,0.09157535433769226,-0.01193797588348389,0.3709800839424133,XArbitraryZVertical,-0.07544886523780812,-0.1236709259614252,-0.1525032782352073,0.9776275929359892,-0.2839734256267548,-0.1772862523794174,-0.9422996640205383,0,0,0,-1,-1,2026-05-26T14:10:01.685+02:00,1671,1.093336,0,0,1393.844,0,0,2026-05-26T15:58:47.639+02:00,801496810.2775888,0,2.61,102.2324,0
2026-05-26T16:00:10.907+02:00,1779804009.999796,53.23609491349372,10.40157582830295,26.00906,0,0.3080157,-1,-1,4.029364438188564,2.000344067697187,-9999,3878.562105291667,-0.0655975341796875,-0.0946502685546875,-0.5592041015625,3878.552029291667,-0.330689689062436,-0.2738670937408774,-0.1133277202521957,-0.4725870192050934,-0.4068360328674316,-0.5002254247665405,0.160639613866806,-0.007212013006210327,0.4278317093849182,XArbitraryZVertical,-0.07777005917083891,-0.1251940006287785,-0.1551647001575903,0.9768327007913353,-0.2863567769527435,-0.1741692125797272,-0.9421597123146057,0,0,0,-1,-1,2026-05-26T14:10:01.685+02:00,1671,1.093336,0,0,1393.844,0,0,2026-05-26T15:58:47.639+02:00,801496810.2775888,0,2.61,102.2324,0
2026-05-26T16:00:10.917+02:00,1779804009.999796,53.23609491349372,10.40157582830295,26.00906,0,0.3080157,-1,-1,4.029364438188564,2.000344067697187,-9999,3878.572181291667,-0.1001434326171875,-0.112030029296875,-0.635345458984375,3878.562105291667,-0.3368169085934301,-0.2793492866418422,-0.1160329795287189,-0.381274402141571,-0.5449103116989136,-0.5141122341156006,0.2194184064865112,0.04256811738014221,0.4187226891517639,XArbitraryZVertical,-0.07990300530338286,-0.1273961871390749,-0.1577435809834374,0.9759623208225919,-0.2899750471115112,-0.171626940369606,-0.9415193200111389,0,0,0,-1,-1,2026-05-26T14:10:01.685+02:00,1671,1.093336,0,0,1393.844,0,0,2026-05-26T15:58:47.639+02:00,801496810.2775888,0,2.61,102.2324,0
2026-05-26T16:00:10.927+02:00,1779804009.999796,53.23609491349372,10.40157582830295,26.00906,0,0.3080157,-1,-1,4.029364438188564,2.000344067697187,-9999,3878.582256291667,-0.1558380126953125,-0.16259765625,-0.735137939453125,3878.572181291667,-0.3429555685569215,-0.2860627512168231,-0.1179527639843145,-0.3215183913707733,-0.6454030871391296,-0.5422133803367615,0.2272810637950897,0.07562395930290222,0.3721645474433899,XArbitraryZVertical,-0.0817659424334469,-0.1302542943573863,-0.1603238879292372,0.9750098224382395,-0.2947096526622772,-0.1698469668626785,-0.9403713345527649,0,0,0,-1,-1,2026-05-26T14:10:01.685+02:00,1671,1.093336,0,0,1393.844,0,0,2026-05-26T15:58:47.639+02:00,801496810.2775888,0,2.61,102.2324,0
2026-05-26T16:00:10.937+02:00,1779804009.999796,53.23609491349372,10.40157582830295,26.00906,0,0.3080157,-1,-1,4.029364438188564,2.000344067697187,-9999,3878.592332291667,-0.2164154052734375,-0.187896728515625,-0.8216400146484375,3878.582256291667,-0.3494344728616186,-0.2935509184672452,-0.1191149612278954,-0.2703662514686584,-0.6783823370933533,-0.6276017427444458,0.1940047740936279,0.05140647292137146,0.2932118773460388,XArbitraryZVertical,-0.08336321041109171,-0.1335316655408053,-0.163083218482127,0.9739730101160891,-0.3000380992889404,-0.1688075959682465,-0.9388722777366638,0,0,0,-1,-1,2026-05-26T14:10:01.685+02:00,1671,1.093336,0,0,1393.844,0,0,2026-05-26T15:58:47.639+02:00,801496810.2775888,0,2.61,102.2324,0
2026-05-26T16:00:10.947+02:00,1779804009.999796,53.23609491349372,10.40157582830295,26.00906,0,0.3080157,-1,-1,4.029364438188564,2.000344067697187,-9999,3878.602408291667,-0.272674560546875,-0.145233154296875,-0.811920166015625,3878.592332291667,-0.3568015803986387,-0.3011081559878198,-0.1197373513436818,-0.2656320631504059,-0.6406834721565247,-0.7155256271362305,0.141886979341507,-0.001072362065315247,0.1862291693687439,XArbitraryZVertical,-0.08478544497973775,-0.1368434563919019,-0.1663026234514172,0.9728456042678477,-0.3051560521125793,-0.1683001965284348,-0.9373125433921814,0,0,0,-1,-1,2026-05-26T14:10:01.685+02:00,1671,1.093336,0,0,1393.844,0,0,2026-05-26T15:58:47.639+02:00,801496810.2775888,0,2.61,102.2324,0
2026-05-26T16:00:10.958+02:00,1779804009.999796,53.23609491349372,10.40157582830295,26.00906,0,0.3080157,-1,-1,4.029364438188564,2.000344067697187,-9999,3878.612484291667,-0.277984619140625,-0.0587921142578125,-0.8314666748046875,3878.602408291667,-0.3645607294778354,-0.3081338913280592,-0.1200696507361408,-0.261174201965332,-0.5601012706756592,-0.7157538533210754,0.08458071947097778,-0.01898980140686035,0.1125158071517944,XArbitraryZVertical,-0.08607351716508521,-0.1398966198816207,-0.1697480226595238,0.9717025141037694,-0.3096478581428528,-0.168067678809166,-0.9358800649642944,0,0,0,-1,-1,2026-05-26T14:10:01.685+02:00,1671,1.093336,0,0,1393.844,0,0,2026-05-26T15:58:47.639+02:00,801496810.2775888,0,2.61,102.2324,0
2026-05-26T16:00:10.968+02:00,1779804009.999796,53.23609491349372,10.40157582830295,26.00906,0,0.3080157,-1,-1,4.029364438188564,2.000344067697187,-9999,3878.622559291667,-0.2403411865234375,0.007598876953125,-0.8255462646484375,3878.612484291667,-0.3720723156440378,-0.3142092343193277,-0.1203622153427993,-0.2410990744829178,-0.4706608355045319,-0.669886589050293,0.036988765001297,0.03228071331977844,0.1219086647033691,XArbitraryZVertical,-0.08726612914275889,-0.1424934399825939,-0.1731084165369906,0.9706253682672695,-0.3133101761341095,-0.1678550541400909,-0.9346985816955566,0,0,0,-1,-1,2026-05-26T14:10:01.685+02:00,1671,1.093336,0,0,1393.844,0,0,2026-05-26T15:58:47.639+02:00,801496810.2775888,0,2.61,102.2324,0
2026-05-26T16:00:10.978+02:00,1779804009.999796,53.23609491349372,10.40157582830295,26.00906,0,0.3080157,-1,-1,4.029364438188564,2.000344067697187,-9999,3878.632635291667,-0.185699462890625,-0.0018768310546875,-0.8563079833984375,3878.622559291667,-0.3788014362774675,-0.3194810747110783,-0.1202580767785399,-0.1545671075582504,-0.4248739182949066,-0.5929734706878662,0.04161348938941956,0.1204961389303207,0.1021592617034912,XArbitraryZVertical,-0.08815936757671516,-0.1447656217325806,-0.1761499654607896,0.9696606690226188,-0.3164089918136597,-0.1680119931697845,-0.9336258769035339,0,0,0,-1,-1,2026-05-26T14:10:01.685+02:00,1671,1.093336,0,0,1393.844,0,0,2026-05-26T15:58:47.639+02:00,801496810.2775888,0,2.61,102.2324,0
2026-05-26T16:00:10.988+02:00,1779804009.999796,53.23609491349372,10.40157582830295,26.00906,0,0.3080157,-1,-1,4.029364438188564,2.000344067697187,-9999,3878.642711291667,-0.1494598388671875,-0.09185791015625,-0.83221435546875,3878.632635291667,-0.3845231989284117,-0.324493327633354,-0.1197260718579322,-0.08369395136833191,-0.4322665929794312,-0.5281210541725159,0.08637231588363647,0.1791163235902786,0.1052428483963013,XArbitraryZVertical,-0.08876457513757641,-0.1469937798178768,-0.1787458990218331,0.9687947864203317,-0.3195113837718964,-0.1685724854469299,-0.9324675798416138,0,0,0,-1,-1,2026-05-26T14:10:01.685+02:00,1671,1.093336,0,0,1393.844,0,0,2026-05-26T15:58:47.639+02:00,801496810.2775888,0,2.61,102.2324,0
2026-05-26T16:00:10.998+02:00,1779804009.999796,53.23609491349372,10.40157582830295,26.00906,0,0.3080157,-1,-1,4.029364438188564,2.000344067697187,-9999,3878.652787291667,-0.1344757080078125,-0.231292724609375,-0.680267333984375,3878.642711291667,-0.3897542505913269,-0.3295548347039516,-0.1176774596664319,0.1182189285755157,-0.4639049172401428,-0.5690906047821045,0.1433830261230469,0.1612016409635544,0.07039946317672729,XArbitraryZVertical,-0.08861959362918194,-0.1494163275286545,-0.1812291544430095,0.9679757644808868,-0.3227043151855469,-0.1706162989139557,-0.9309951663017273,0,0,0,-1,-1,2026-05-26T14:10:01.685+02:00,1671,1.093336,0,0,1393.844,0,0,2026-05-26T15:58:47.639+02:00,801496810.2775888,0,2.61,102.2324,0
2026-05-26T16:00:11.008+02:00,1779804009.999796,53.23609491349372,10.40157582830295,26.00906,0,0.3080157,-1,-1,4.029364438188564,2.000344067697187,-9999,3878.662863291667,-0.1063079833984375,-0.2468414306640625,-0.662933349609375,3878.652787291667,-0.3944606698211984,-0.3353221175854773,-0.1144388009667926,0.1831523925065994,-0.57297682762146,-0.5197197198867798,0.1793860793113708,0.06513398885726929,0.1122933030128479,XArbitraryZVertical,-0.08793979183823737,-0.1523245158305597,-0.183531868578947,0.9671502550028528,-0.326618105173111,-0.1738223284482956,-0.9290351867675781,0,0,0,-1,-1,2026-05-26T14:10:01.685+02:00,1671,1.093336,0,0,1393.844,0,0,2026-05-26T15:58:47.639+02:00,801496810.2775888,0,2.61,102.2324,0
2026-05-26T16:00:11.018+02:00,1779804009.999796,53.23609491349372,10.40157582830295,26.00906,0,0.3080157,-1,-1,4.029364438188564,2.000344067697187,-9999,3878.672938291667,-0.138916015625,-0.167022705078125,-0.796051025390625,3878.662863291667,-0.3985816281573107,-0.3420478423304747,-0.1102794012559825,0.3389822244644165,-0.6751732230186462,-0.526350200176239,0.2007545530796051,-0.06532998383045197,0.2603398561477661,XArbitraryZVertical,-0.08687514964909893,-0.1558177913143927,-0.1855955970152061,0.9662958959962473,-0.3315071165561676,-0.1779256165027618,-0.9265233278274536,0,0,0,-1,-1,2026-05-26T14:10:01.685+02:00,1671,1.093336,0,0,1393.844,0,0,2026-05-26T15:58:47.639+02:00,801496810.2775888,0,2.61,102.2324,0
2026-05-26T16:00:11.028+02:00,1779804009.999796,53.23609491349372,10.40157582830295,26.00906,0,0.3080157,-1,-1,4.029364438188564,2.000344067697187,-9999,3878.683014291667,-0.2426300048828125,-0.0684661865234375,-0.9509429931640625,3878.672938291667,-0.4021173865463813,-0.3499074354186614,-0.104118017630787,0.5770975351333618,-0.8032712936401367,-0.5459114909172058,0.232347160577774,-0.05502480268478394,0.2481085062026978,XArbitraryZVertical,-0.08492333056474456,-0.1600919290031743,-0.1875168102290475,0.96539936623624,-0.3374496698379517,-0.1839888542890549,-0.9231878519058228,0,0,0,-1,-1,2026-05-26T14:10:01.685+02:00,1671,1.093336,0,0,1393.844,0,0,2026-05-26T15:58:47.639+02:00,801496810.2775888,0,2.61,102.2324,0
2026-05-26T16:00:11.038+02:00,1779804009.999796,53.23609491349372,10.40157582830295,26.00906,0,0.3080157,-1,-1,4.029364438188564,2.000344067697187,-9999,3878.693090291667,-0.3765411376953125,0.01763916015625,-1.103759765625,3878.683014291667,-0.4049040517267364,-0.35851885500147,-0.09544942968961778,0.853015661239624,-0.8325567245483398,-0.5675091743469238,0.1947020590305328,0.03625279664993286,0.1042554974555969,XArbitraryZVertical,-0.08179391384993456,-0.1650217776692055,-0.1892922340020508,0.9644925684809864,-0.3440703451633453,-0.1925027966499329,-0.9189985394477844,0,0,0,-1,-1,2026-05-26T14:10:01.685+02:00,1671,1.093336,0,0,1393.844,0,0,2026-05-26T15:58:47.639+02:00,801496810.2775888,0,2.61,102.2324,0
2026-05-26T16:00:11.048+02:00,1779804009.999796,53.23609491349372,10.40157582830295,26.00906,0,0.3080157,-1,-1,4.029364438188564,2.000344067697187,-9999,3878.703166291667,-0.494232177734375,0.0179443359375,-1.206588745117188,3878.693090291667,-0.4069390274859567,-0.3667126161201364,-0.08442269082065065,1.014598488807678,-0.7520503997802734,-0.5800817608833313,0.09202486276626587,0.1472952365875244,-0.05627709627151489,XArbitraryZVertical,-0.0774459965578773,-0.1700262430270506,-0.1909688746301873,0.9636513893063018,-0.3502646088600159,-0.2033102363348007,-0.9143192172050476,0,0,0,-1,-1,2026-05-26T14:10:01.685+02:00,1671,1.093336,0,0,1393.844,0,0,2026-05-26T15:58:47.639+02:00,801496810.2775888,0,2.61,102.2324,0
2026-05-26T16:00:11.058+02:00,1779804009.999796,53.23609491349372,10.40157582830295,26.00906,0,0.3080157,-1,-1,4.029364438188564,2.000344067697187,-9999,3878.713241291667,-0.5597686767578125,-0.083160400390625,-1.174346923828125,3878.703166291667,-0.408889710188747,-0.3739105524487083,-0.07298241425976974,0.9418522119522095,-0.6510623097419739,-0.6036997437477112,-0.03751373291015625,0.2381621897220612,-0.2117531299591064,XArbitraryZVertical,-0.07281131929446819,-0.174598162033768,-0.1927132498413147,0.9628475489385846,-0.3554458618164062,-0.2144957929849625,-0.9097526073455811,0,0,0,-1,-1,2026-05-26T14:10:01.685+02:00,1671,1.093336,0,0,1393.844,0,0,2026-05-26T15:58:47.639+02:00,801496810.2775888,0,2.61,102.2324,0
2026-05-26T16:00:11.068+02:00,1779804009.999796,53.23609491349372,10.40157582830295,26.00906,0,0.3080157,-1,-1,4.029364438188564,2.000344067697187,-9999,3878.723317291667,-0.54351806640625,-0.2236175537109375,-1.089462280273438,3878.713241291667,-0.4116939812580512,-0.380535959786571,-0.06309508256159489,0.6432478427886963,-0.6431141495704651,-0.6258143186569214,-0.146094411611557,0.2352304309606552,-0.3044677972793579,XArbitraryZVertical,-0.06895582131048993,-0.1787064550875203,-0.1947684638554675,0.9619636774173436,-0.359917551279068,-0.2241372764110565,-0.9056609869003296,0,0,0,-1,-1,2026-05-26T14:10:01.685+02:00,1671,1.093336,0,0,1393.844,0,0,2026-05-26T15:58:47.639+02:00,801496810.2775888,0,2.61,102.2324,0
2026-05-26T16:00:11.079+02:00,1779804009.999796,53.23609491349372,10.40157582830295,26.00906,0,0.3080157,-1,-1,4.029364438188564,2.000344067697187,-9999,3878.733393291667,-0.4751434326171875,-0.2509918212890625,-1.031463623046875,3878.723317291667,-0.4159765369592788,-0.3874482438554465,-0.05686855368619965,0.1984781324863434,-0.66763836145401,-0.6239005923271179,-0.1981640160083771,0.1287332624197006,-0.26215660572052,XArbitraryZVertical,-0.06703403979148086,-0.1825286910747566,-0.1971921117133679,0.9608875033356326,-0.364503800868988,-0.2301889508962631,-0.902302622795105,0,0,0,-1,-1,2026-05-26T14:10:01.685+02:00,1671,1.093336,0,0,1393.844,0,0,2026-05-26T15:58:47.639+02:00,801496810.2775888,0,2.61,102.2324,0
2026-05-26T16:00:11.089+02:00,1779804009.999796,53.23609491349372,10.40157582830295,26.00906,0,0.3080157,-1,-1,4.029364438188564,2.000344067697187,-9999,3878.743469291667,-0.4277496337890625,-0.1896820068359375,-0.97869873046875,3878.733393291667,-0.4218105735698858,-0.3944102886844295,-0.05406034654748166,-0.1049772426486015,-0.6527989506721497,-0.6592507362365723,-0.1678744852542877,-0.001448437571525574,-0.1801448464393616,XArbitraryZVertical,-0.06691769179139227,-0.1859697018273775,-0.2000346721246067,0.9596475276827308,-0.3689907491207123,-0.2328960448503494,-0.8997806906700134,0,0,0,-1,-1,2026-05-26T14:10:01.685+02:00,1671,1.093336,0,0,1393.844,0,0,2026-05-26T15:58:47.639+02:00,801496810.2775888,0,2.61,102.2324,0
2026-05-26T16:00:11.099+02:00,1779804009.999796,53.23609491349372,10.40157582830295,26.00906,0,0.3080157,-1,-1,4.029364438188564,2.000344067697187,-9999,3878.753545291667,-0.3996734619140625,-0.1573486328125,-0.85992431640625,3878.743469291667,-0.4285688749644303,-0.4013202717914203,-0.05274649971008787,-0.13315749168396,-0.6408011317253113,-0.6691837906837463,-0.09411740303039551,-0.01186951994895935,-0.1302306056022644,XArbitraryZVertical,-0.0676195882297646,-0.189194876151897,-0.2031732829534557,0.9583076163596036,-0.373305082321167,-0.2341326773166656,-0.8976777195930481,0,0,0,-1,-1,2026-05-26T14:10:01.685+02:00,1671,1.093336,0,0,1393.844,0,0,2026-05-26T15:58:47.639+02:00,801496810.2775888,0,2.61,102.2324,0
2026-05-26T16:00:11.109+02:00,1779804009.999796,53.23609491349372,10.40157582830295,26.00906,0,0.3080157,-1,-1,4.029364438188564,2.000344067697187,-9999,3878.763620291667,-0.3804779052734375,-0.20452880859375,-0.91033935546875,3878.753545291667,-0.4350386885006453,-0.4077538737705221,-0.05107155588776463,-0.0464613102376461,-0.5699259638786316,-0.6423696279525757,-0.04704806208610535,0.05428235232830048,-0.06715875864028931,XArbitraryZVertical,-0.06809487069147244,-0.1922359513891984,-0.2062218097207088,0.9570166397864267,-0.3772225379943848,-0.2357093393802643,-0.8956250548362732,0,0,0,-1,-1,2026-05-26T14:10:01.685+02:00,1671,1.093336,0,0,1393.844,0,0,2026-05-26T15:58:47.639+02:00,801496810.2775888,0,2.61,102.2324,0
2026-05-26T16:00:11.119+02:00,1779804009.999796,53.23609491349372,10.40157582830295,26.00906,0,0.3080157,-1,-1,4.029364438188564,2.000344067697187,-9999,3878.773696291667,-0.4043121337890625,-0.27349853515625,-1.063995361328125,3878.763620291667,-0.4408451217468143,-0.4134948723840224,-0.04787830668705269,0.1553122848272324,-0.5461663007736206,-0.6713277697563171,-0.01526039838790894,0.07937707006931305,0.03831076622009277,XArbitraryZVertical,-0.06772975298129652,-0.1951314935760268,-0.2091296036948301,0.9558248388616063,-0.3805373013019562,-0.2387551069259644,-0.8934133052825928,0,0,0,-1,-1,2026-05-26T14:10:01.685+02:00,1671,1.093336,0,0,1393.844,0,0,2026-05-26T15:58:47.639+02:00,801496810.2775888,0,2.61,102.2324,0
2026-05-26T16:00:11.129+02:00,1779804010.999799,53.23609491349361,10.40157582830425,26.00906,0,0.3080157,-1,-1,4.029364438188564,2.00036958493258,-9999,3878.783772291667,-0.458770751953125,-0.272674560546875,-1.1630859375,3878.773696291667,-0.4463575097795779,-0.4191186043288885,-0.04245112122450018,0.415119856595993,-0.4990059435367584,-0.7703721523284912,0.002681523561477661,0.0301072746515274,-0.03668415546417236,XArbitraryZVertical,-0.06627758712763124,-0.1982290747569115,-0.2121340897389069,0.954626340110808,-0.3835866749286652,-0.2439591884613037,-0.8906992673873901,0,0,0,-1,-1,2026-05-26T14:10:01.685+02:00,1671,1.093336,0,0,1393.844,0,0,2026-05-26T15:58:47.639+02:00,801496810.2775888,0,2.61,102.2324,0
2026-05-26T16:00:11.139+02:00,1779804010.999799,53.23609491349361,10.40157582830425,26.00906,0,0.3080157,-1,-1,4.029364438188564,2.00036958493258,-9999,3878.793848291667,-0.5354461669921875,-0.2000579833984375,-1.2293701171875,3878.783772291667,-0.4513410594095305,-0.4236566322554299,-0.03393811791214509,0.6882333755493164,-0.3653882145881653,-0.79899662733078,-0.02489310503005981,-0.02642276883125305,-0.1934031248092651,XArbitraryZVertical,-0.06320659606739919,-0.2011752796865623,-0.2152499296807444,0.9535202054465202,-0.3854615390300751,-0.2521416842937469,-0.8876057863235474,0,0,0,-1,-1,2026-05-26T14:10:01.685+02:00,1671,1.093336,0,0,1393.844,0,0,2026-05-26T15:58:47.639+02:00,801496810.2775888,0,2.61,102.2324,0
2026-05-26T16:00:11.149+02:00,1779804010.999799,53.23609491349361,10.40157582830425,26.00906,0,0.3080157,-1,-1,4.029364438188564,2.00036958493258,-9999,3878.803923291667,-0.5541229248046875,-0.1293182373046875,-1.161880493164062,3878.793848291667,-0.4555736900164311,-0.426940460652087,-0.02449071746498176,0.6439231038093567,-0.2673460841178894,-0.7409305572509766,-0.08258473873138428,-0.00571015477180481,-0.2883633971214294,XArbitraryZVertical,-0.0594954117812549,-0.203662274400072,-0.2181526294192891,0.9525708559422381,-0.3862720727920532,-0.2612118422985077,-0.8846254944801331,0,0,0,-1,-1,2026-05-26T14:10:01.685+02:00,1671,1.093336,0,0,1393.844,0,0,2026-05-26T15:58:47.639+02:00,801496810.2775888,0,2.61,102.2324,0
2026-05-26T16:00:11.159+02:00,1779804010.999799,53.23609491349361,10.40157582830425,26.00906,0,0.3080157,-1,-1,4.029364438188564,2.00036958493258,-9999,3878.813999291667,-0.5226287841796875,-0.20660400390625,-1.085891723632812,3878.803923291667,-0.459739563392156,-0.4293210279663247,-0.01604349898829422,0.5299097299575806,-0.1990522295236588,-0.7163642644882202,-0.155474454164505,0.08163908123970032,-0.3486762642860413,XArbitraryZVertical,-0.05616564244614521,-0.2056201434937844,-0.2209503355338489,0.9517071779683745,-0.38636514544487,-0.2692916691303253,-0.8821586966514587,0,0,0,-1,-1,2026-05-26T14:10:01.685+02:00,1671,1.093336,0,0,1393.844,0,0,2026-05-26T15:58:47.639+02:00,801496810.2775888,0,2.61,102.2324,0
2026-05-26T16:00:11.169+02:00,1779804010.999799,53.23609491349361,10.40157582830425,26.00906,0,0.3080157,-1,-1,4.029364438188564,2.00036958493258,-9999,3878.824075291667,-0.4781494140625,-0.3424072265625,-1.033065795898438,3878.813999291667,-0.4645804891991084,-0.4313039197471194,-0.009558685852250193,0.2200717478990555,-0.1900206506252289,-0.6966760158538818,-0.1661231815814972,0.1468489766120911,-0.2670384049415588,XArbitraryZVertical,-0.05380334866345454,-0.2071599768184076,-0.2238768218777258,0.9508253416829007,-0.3861229121685028,-0.2754500210285187,-0.8803614974021912,0,0,0,-1,-1,2026-05-26T14:10:01.685+02:00,1671,1.093336,0,0,1393.844,0,0,2026-05-26T15:58:47.639+02:00,801496810.2775888,0,2.61,102.2324,0
2026-05-26T16:00:11.179+02:00,1779804010.999799,53.23609491349361,10.40157582830425,26.00906,0,0.3080157,-1,-1,4.029364438188564,2.00036958493258,-9999,3878.834151291667,-0.457427978515625,-0.388214111328125,-0.977325439453125,3878.824075291667,-0.4707407385190358,-0.4334865549175635,-0.005871947374446826,-0.0594126358628273,-0.2376036196947098,-0.7245116233825684,-0.1319060027599335,0.05460619926452637,-0.2023248672485352,XArbitraryZVertical,-0.05293842105793641,-0.208451351615823,-0.2271319735937527,0.9498191049382255,-0.3860230445861816,-0.278879851102829,-0.8793248534202576,0,0,0,-1,-1,2026-05-26T14:10:01.685+02:00,1671,1.093336,0,0,1393.844,0,0,2026-05-26T15:58:47.639+02:00,801496810.2775888,0,2.61,102.2324,0
2026-05-26T16:00:11.189+02:00,1779804010.999799,53.23609491349361,10.40157582830425,26.00906,0,0.3080157,-1,-1,4.029364438188564,2.00036958493258,-9999,3878.844227291667,-0.4822845458984375,-0.327606201171875,-1.026214599609375,3878.834151291667,-0.4781023216107748,-0.4360859885372054,-0.004072110373388461,-0.1908003836870193,-0.263082355260849,-0.7548487782478333,-0.08723783493041992,-0.0737730860710144,-0.145027220249176,XArbitraryZVertical,-0.05315151960406243,-0.2096968147412998,-0.2307461652552419,0.9486612199067374,-0.3861966133117676,-0.2804597020149231,-0.878745973110199,0,0,0,-1,-1,2026-05-26T14:10:01.685+02:00,1671,1.093336,0,0,1393.844,0,0,2026-05-26T15:58:47.639+02:00,801496810.2775888,0,2.61,102.2324,0
2026-05-26T16:00:11.199+02:00,1779804010.999799,53.23609491349361,10.40157582830425,26.00906,0,0.3080157,-1,-1,4.029364438188564,2.00036958493258,-9999,3878.854302291667,-0.541656494140625,-0.259918212890625,-1.0841064453125,3878.844227291667,-0.4860166475937534,-0.4384410441586544,-0.001830290097829158,-0.08137775212526321,-0.2043402045965195,-0.8548680543899536,-0.07178851962089539,-0.1033995151519775,-0.09953522682189941,XArbitraryZVertical,-0.05319514514270542,-0.2108642995867155,-0.2346716174592991,0.9474362867362605,-0.3859598934650421,-0.2824342250823975,-0.8782173991203308,0,0,0,-1,-1,2026-05-26T14:10:01.685+02:00,1671,1.093336,0,0,1393.844,0,0,2026-05-26T15:58:47.639+02:00,801496810.2775888,0,2.61,102.2324,0
2026-05-26T16:00:11.209+02:00,1779804010.999799,53.23609491349361,10.40157582830425,26.00906,0,0.3080157,-1,-1,4.029364438188564,2.00036958493258,-9999,3878.864378291667,-0.5829620361328125,-0.24053955078125,-1.083236694335938,3878.854302291667,-0.4941538336832709,-0.4400792614745347,0.001264169576132221,-0.05226146429777145,-0.1251295506954193,-0.8594710826873779,-0.1031199097633362,-0.03102228045463562,-0.1595336198806763,XArbitraryZVertical,-0.05278392319761142,-0.2117906477212995,-0.2388075489813207,0.9462184285317058,-0.3849324584007263,-0.2852008640766144,-0.8777741193771362,0,0,0,-1,-1,2026-05-26T14:10:01.685+02:00,1671,1.093336,0,0,1393.844,0,0,2026-05-26T15:58:47.639+02:00,801496810.2775888,0,2.61,102.2324,0
2026-05-26T16:00:11.219+02:00,1779804010.999799,53.23609491349361,10.40157582830425,26.00906,0,0.3080157,-1,-1,4.029364438188564,2.00036958493258,-9999,3878.874454291667,-0.580322265625,-0.2786865234375,-1.148239135742188,3878.864378291667,-0.5022277526916329,-0.4410009470719738,0.004588394095475729,-0.04467704892158508,-0.07244688272476196,-0.8706212043762207,-0.1655965447425842,0.03372737765312195,-0.2066771388053894,XArbitraryZVertical,-0.05217915880738284,-0.2124139184811326,-0.2429522401752219,0.9450564069798197,-0.3832620680332184,-0.2881676554679871,-0.8775360584259033,0,0,0,-1,-1,2026-05-26T14:10:01.685+02:00,1671,1.093336,0,0,1393.844,0,0,2026-05-26T15:58:47.639+02:00,801496810.2775888,0,2.61,102.2324,0
2026-05-26T16:00:11.230+02:00,1779804010.999799,53.23609491349361,10.40157582830425,26.00906,0,0.3080157,-1,-1,4.029364438188564,2.00036958493258,-9999,3878.884530291667,-0.584197998046875,-0.3276824951171875,-1.208740234375,3878.874454291667,-0.5104659018793453,-0.4415832824760569,0.00774138226803624,-0.08848413079977036,-0.04908297583460808,-0.8779994249343872,-0.2033849060535431,0.04861924052238464,-0.2099302411079407,XArbitraryZVertical,-0.05163687314869676,-0.2128593727515503,-0.2471603331945288,0.9438941215412363,-0.3812708556652069,-0.2909440696239471,-0.8774873614311218,0,0,0,-1,-1,2026-05-26T14:10:01.685+02:00,1671,1.093336,0,0,1393.844,0,0,2026-05-26T15:58:47.639+02:00,801496810.2775888,0,2.61,102.2324,0
2026-05-26T16:00:11.240+02:00,1779804010.999799,53.23609491349361,10.40157582830425,26.00906,0,0.3080157,-1,-1,4.029364438188564,2.00036958493258,-9999,3878.894605291667,-0.6029205322265625,-0.340850830078125,-1.209930419921875,3878.884530291667,-0.5190374548227208,-0.4416713315707692,0.01045715196951819,-0.1505789309740067,0.01616740040481091,-0.8897951245307922,-0.2010047435760498,0.006648629903793335,-0.2800596952438354,XArbitraryZVertical,-0.05127885387724661,-0.2130163095941523,-0.2514869938231389,0.9427346164588654,-0.3788139820098877,-0.2932696938514709,-0.8777772188186646,0,0,0,-1,-1,2026-05-26T14:10:01.685+02:00,1671,1.093336,0,0,1393.844,0,0,2026-05-26T15:58:47.639+02:00,801496810.2775888,0,2.61,102.2324,0
2026-05-26T16:00:11.250+02:00,1779804010.999799,53.23609491349361,10.40157582830425,26.00906,0,0.3080157,-1,-1,4.029364438188564,2.00036958493258,-9999,3878.904681291667,-0.5714874267578125,-0.3155670166015625,-1.17779541015625,3878.894605291667,-0.5278651877377748,-0.4410019412354411,0.01269576476248566,-0.1967846006155014,0.09172021597623825,-0.8787609934806824,-0.2109223008155823,-0.03611466288566589,-0.3339889645576477,XArbitraryZVertical,-0.05107826377764919,-0.2127562804803171,-0.2558977677839781,0.9416166847712779,-0.3756865859031677,-0.2951078712940216,-0.8785049319267273,0,0,0,-1,-1,2026-05-26T14:10:01.685+02:00,1671,1.093336,0,0,1393.844,0,0,2026-05-26T15:58:47.639+02:00,801496810.2775888,0,2.61,102.2324,0
2026-05-26T16:00:11.260+02:00,1779804010.999799,53.23609491349361,10.40157582830425,26.00906,0,0.3080157,-1,-1,4.029364438188564,2.00036958493258,-9999,3878.914757291667,-0.4902801513671875,-0.29541015625,-1.105316162109375,3878.904681291667,-0.5366363990138358,-0.4398206768172072,0.01439615959832618,-0.239793062210083,0.1127722337841988,-0.8368495106697083,-0.2309423089027405,-0.04283764958381653,-0.3274323344230652,XArbitraryZVertical,-0.05105690162088127,-0.2121934624794945,-0.2602328647250852,0.9405561231424364,-0.3721918165683746,-0.296411007642746,-0.8795531392097473,0,0,0,-1,-1,2026-05-26T14:10:01.685+02:00,1671,1.093336,0,0,1393.844,0,0,2026-05-26T15:58:47.639+02:00,801496810.2775888,0,2.61,102.2324,0
2026-05-26T16:00:11.270+02:00,1779804010.999799,53.23609491349361,10.40157582830425,26.00906,0,0.3080157,-1,-1,4.029364438188564,2.00036958493258,-9999,3878.924833291667,-0.435577392578125,-0.29339599609375,-1.057373046875,3878.914757291667,-0.5452486352734908,-0.4386400023689397,0.01531809222192247,-0.319015771150589,0.09293834120035172,-0.7889493107795715,-0.1929920017719269,-0.015056312084198,-0.2906962037086487,XArbitraryZVertical,-0.05138063275083345,-0.2115374454934881,-0.2644068996200991,0.9395215851255767,-0.3688366115093231,-0.2969553768634796,-0.8807820677757263,0,0,0,-1,-1,2026-05-26T14:10:01.685+02:00,1671,1.093336,0,0,1393.844,0,0,2026-05-26T15:58:47.639+02:00,801496810.2775888,0,2.61,102.2324,0
2026-05-26T16:00:11.280+02:00,1779804010.999799,53.23609491349361,10.40157582830425,26.00906,0,0.3080157,-1,-1,4.029364438188564,2.00036958493258,-9999,3878.934909291667,-0.4471282958984375,-0.3080291748046875,-1.092666625976562,3878.924833291667,-0.5537499301607891,-0.4375581127157189,0.01562866200442609,-0.3381681740283966,0.09898078441619873,-0.7681183218955994,-0.1144741177558899,0.001840919256210327,-0.213401734828949,XArbitraryZVertical,-0.0519882707192504,-0.2108506771052762,-0.2684584221116228,0.9384929814118146,-0.3656741678714752,-0.2969000935554504,-0.882118284702301,0,0,0,-1,-1,2026-05-26T14:10:01.685+02:00,1671,1.093336,0,0,1393.844,0,0,2026-05-26T15:58:47.639+02:00,801496810.2775888,0,2.61,102.2324,0
2026-05-26T16:00:11.290+02:00,1779804010.999799,53.23609491349361,10.40157582830425,26.00906,0,0.3080157,-1,-1,4.029364438188564,2.00036958493258,-9999,3878.944984291667,-0.4900665283203125,-0.3330078125,-1.153518676757812,3878.934909291667,-0.5622000785013206,-0.4362558358528185,0.0157503601859927,-0.3403162062168121,0.1273019164800644,-0.7651369571685791,-0.07072067260742188,0.002609729766845703,-0.173358142375946,XArbitraryZVertical,-0.05264416842146498,-0.2100351345674628,-0.2724681149994208,0.9374831854397213,-0.3623542785644531,-0.2966465651988983,-0.8835723996162415,0,0,0,-1,-1,2026-05-26T14:10:01.685+02:00,1671,1.093336,0,0,1393.844,0,0,2026-05-26T15:58:47.639+02:00,801496810.2775888,0,2.61,102.2324,0
2026-05-26T16:00:11.300+02:00,1779804010.999799,53.23609491349361,10.40157582830425,26.00906,0,0.3080157,-1,-1,4.029364438188564,2.00036958493258,-9999,3878.955060291667,-0.5161285400390625,-0.348541259765625,-1.193634033203125,3878.944984291667,-0.57073096045754,-0.4345828939071447,0.01609024072810533,-0.3216977715492249,0.1790809482336044,-0.7948197722434998,-0.09356626868247986,-0.01447314023971558,-0.2158803343772888,XArbitraryZVertical,-0.05314899612969468,-0.2090718356638094,-0.2765438740236349,0.9364760537541493,-0.3586584329605103,-0.2965772449970245,-0.8851022720336914,0,0,0,-1,-1,2026-05-26T14:10:01.685+02:00,1671,1.093336,0,0,1393.844,0,0,2026-05-26T15:58:47.639+02:00,801496810.2775888,0,2.61,102.2324,0
2026-05-26T16:00:11.310+02:00,1779804010.999799,53.23609491349361,10.40157582830425,26.00906,0,0.3080157,-1,-1,4.029364438188564,2.00036958493258,-9999,3878.965136291667,-0.5225830078125,-0.33514404296875,-1.18231201171875,3878.955060291667,-0.5795030968837637,-0.4322279432005861,0.01619968808362182,-0.4086626172065735,0.2630810439586639,-0.7877722978591919,-0.1401673257350922,-0.03931564092636108,-0.2725921869277954,XArbitraryZVertical,-0.05368373958109285,-0.2077505036807576,-0.2807232329977081,0.9354956206316178,-0.3543242216110229,-0.2962556481361389,-0.8869537115097046,0,0,0,-1,-1,2026-05-26T14:10:01.685+02:00,1671,1.093336,0,0,1393.844,0,0,2026-05-26T15:58:47.639+02:00,801496810.2775888,0,2.61,102.2324,0
2026-05-26T16:00:11.320+02:00,1779804010.999799,53.23609491349361,10.40157582830425,26.00906,0,0.3080157,-1,-1,4.029364438188564,2.00036958493258,-9999,3878.975212291667,-0.4915924072265625,-0.3282012939453125,-1.108428955078125,3878.965136291667,-0.5887361747592617,-0.428939319790958,0.01497687172464209,-0.5777832269668579,0.3514588177204132,-0.7804616689682007,-0.1686953008174896,-0.05441218614578247,-0.3059994578361511,XArbitraryZVertical,-0.05474547102070229,-0.2057917317353187,-0.2850052747100859,0.9345717950352401,-0.3492032587528229,-0.2946173250675201,-0.8895266652107239,0,0,0,-1,-1,2026-05-26T14:10:01.685+02:00,1671,1.093336,0,0,1393.844,0,0,2026-05-26T15:58:47.639+02:00,801496810.2775888,0,2.61,102.2324,0
2026-05-26T16:00:11.347+02:00,1779804010.999799,53.23609491349361,10.40157582830425,26.00906,0,0.3080157,-1,-1,4.029364438188564,2.00036958493258,-9999,3878.985287291667,-0.429351806640625,-0.3412628173828125,-1.037841796875,3878.975212291667,-0.5986904022363979,-0.4250151549725042,0.01221138436521,-0.7378741502761841,0.3936145603656769,-0.7891305088996887,-0.177656352519989,-0.04161149263381958,-0.2840344309806824,XArbitraryZVertical,-0.0564926961018541,-0.2032887284225206,-0.2894861139208944,0.9336379248177258,-0.3435075879096985,-0.2914420664310455,-0.8927844166755676,0,0,0,-1,-1,2026-05-26T14:10:01.685+02:00,1671,1.093336,0,0,1393.844,0,0,2026-05-26T15:58:47.639+02:00,801496810.2775888,0,2.61,102.2324,0
2026-05-26T16:00:11.351+02:00,1779804010.999799,53.23609491349361,10.40157582830425,26.00906,0,0.3080157,-1,-1,4.029364438188564,2.00036958493258,-9999,3878.995363291667,-0.375,-0.298431396484375,-1.04443359375,3878.985287291667,-0.6091085878320979,-0.4208567879724733,0.008267533495985867,-0.8116682171821594,0.4115091562271118,-0.7685005664825439,-0.1476110816001892,-0.04241484403610229,-0.2008944153785706,XArbitraryZVertical,-0.0587790411007208,-0.20047695847123,-0.2940746188617903,0.9326702931892236,-0.3376031816005707,-0.2870834469795227,-0.8964414000511169,0,0,0,-1,-1,2026-05-26T14:10:01.685+02:00,1671,1.093336,0,0,1393.844,0,0,2026-05-26T15:58:47.639+02:00,801496810.2775888,0,2.61,102.2324,0
2026-05-26T16:00:11.352+02:00,1779804010.999799,53.23609491349361,10.40157582830425,26.00906,0,0.3080157,-1,-1,4.029364438188564,2.00036958493258,-9999,3879.005439291667,-0.3749542236328125,-0.22906494140625,-1.098480224609375,3878.995363291667,-0.6193743348964059,-0.4165467233560821,0.003841160043075939,-0.8170219659805298,0.4294095933437347,-0.7379318475723267,-0.08974179625511169,-0.05777415633201599,-0.1342217326164246,XArbitraryZVertical,-0.06122584307586059,-0.1975068856162971,-0.298552320215087,0.9317236120350094,-0.3316296637058258,-0.2822374403476715,-0.9002020955085754,0,0,0,-1,-1,2026-05-26T14:10:01.685+02:00,1671,1.093336,0,0,1393.844,0,0,2026-05-26T15:58:47.639+02:00,801496810.2775888,0,2.61,102.2324,0
2026-05-26T16:00:11.360+02:00,1779804010.999799,53.23609491349361,10.40157582830425,26.00906,0,0.3080157,-1,-1,4.029364438188564,2.00036958493258,-9999,3879.015515291667,-0.4185028076171875,-0.22772216796875,-1.133773803710938,3879.005439291667,-0.6295182551962877,-0.4120952405376486,-0.0006913371286006429,-0.8165602087974548,0.448223739862442,-0.7438092231750488,-0.04582715034484863,-0.01247137784957886,-0.1463913321495056,XArbitraryZVertical,-0.06366107803597498,-0.1944365349076494,-0.3029715410434238,0.9307791665009877,-0.325541228055954,-0.2772624492645264,-0.9039626121520996,0,0,0,-1,-1,2026-05-26T14:10:01.685+02:00,1671,1.093336,0,0,1393.844,0,0,2026-05-26T15:58:47.639+02:00,801496810.2775888,0,2.61,102.2324,0
2026-05-26T16:00:11.370+02:00,1779804010.999799,53.23609491349361,10.40157582830425,26.00906,0,0.3080157,-1,-1,4.029364438188564,2.00036958493258,-9999,3879.025591291667,-0.43463134765625,-0.2563629150390625,-1.138839721679688,3879.015515291667,-0.6396779907315563,-0.4075278416955334,-0.005074932406065568,-0.7788072824478149,0.4652655720710754,-0.75778728723526,-0.05948770046234131,0.04828920960426331,-0.1967841982841492,XArbitraryZVertical,-0.06598251914767184,-0.1913125848975443,-0.3074206926044244,0.9298054008341012,-0.3192964792251587,-0.2723950445652008,-0.9076622128486633,0,0,0,-1,-1,2026-05-26T14:10:01.685+02:00,1671,1.093336,0,0,1393.844,0,0,2026-05-26T15:58:47.639+02:00,801496810.2775888,0,2.61,102.2324,0
2026-05-26T16:00:11.381+02:00,1779804010.999799,53.23609491349361,10.40157582830425,26.00906,0,0.3080157,-1,-1,4.029364438188564,2.00036958493258,-9999,3879.035666291667,-0.42327880859375,-0.2357177734375,-1.102935791015625,3879.025591291667,-0.649596886781897,-0.402988073402572,-0.008980716689613316,-0.7026717662811279,0.4397807121276855,-0.7395869493484497,-0.109168142080307,0.03562414646148682,-0.2249624133110046,XArbitraryZVertical,-0.06803496177215002,-0.1882635505034493,-0.311806790028998,0.9288187969925682,-0.3130578100681305,-0.2679697275161743,-0.9111459851264954,0,0,0,-1,-1,2026-05-26T14:10:01.685+02:00,1671,1.093336,0,0,1393.844,0,0,2026-05-26T15:58:47.639+02:00,801496810.2775888,0,2.61,102.2324,0
2026-05-26T16:00:11.391+02:00,1779804010.999799,53.23609491349361,10.40157582830425,26.00906,0,0.3080157,-1,-1,4.029364438188564,2.00036958493258,-9999,3879.045742291667,-0.4103240966796875,-0.179473876953125,-1.10986328125,3879.035666291667,-0.6588144694984785,-0.3988708137844987,-0.01198123607024159,-0.5550682544708252,0.3998008072376251,-0.7105958461761475,-0.1264510750770569,0.00700339674949646,-0.2222675681114197,XArbitraryZVertical,-0.06964198737148942,-0.1855613207898584,-0.3159416284381297,0.9278457294934512,-0.3072647154331207,-0.2644343972206116,-0.9141459465026855,0,0,0,-1,-1,2026-05-26T14:10:01.685+02:00,1671,1.093336,0,0,1393.844,0,0,2026-05-26T15:58:47.639+02:00,801496810.2775888,0,2.61,102.2324,0
2026-05-26T16:00:11.401+02:00,1779804010.999799,53.23609491349361,10.40157582830425,26.00906,0,0.3080157,-1,-1,4.029364438188564,2.00036958493258,-9999,3879.055818291667,-0.42022705078125,-0.156494140625,-1.144195556640625,3879.045742291667,-0.6671003935624928,-0.3949241614701074,-0.01382635935067709,-0.4227350354194641,0.4031151235103607,-0.66595858335495,-0.1187561452388763,0.03288263082504272,-0.1833347678184509,XArbitraryZVertical,-0.07063336027860413,-0.1831452246300196,-0.3197483289912656,0.9269463988971252,-0.3017303049564362,-0.2620543837547302,-0.9166713356971741,0,0,0,-1,-1,2026-05-26T14:10:01.685+02:00,1671,1.093336,0,0,1393.844,0,0,2026-05-26T15:58:47.639+02:00,801496810.2775888,0,2.61,102.2324,0
2026-05-26T16:00:11.411+02:00,1779804010.999799,53.23609491349361,10.40157582830425,26.00906,0,0.3080157,-1,-1,4.029364438188564,2.00036958493258,-9999,3879.065894291667,-0.4315338134765625,-0.1923065185546875,-1.15997314453125,3879.055818291667,-0.6746341735223808,-0.3908947681434853,-0.01481364091272171,-0.3426859974861145,0.4141632318496704,-0.6403438448905945,-0.114385187625885,0.0874878466129303,-0.1959221363067627,XArbitraryZVertical,-0.0711280835012479,-0.1808515007435387,-0.3232891773403205,0.9261304285995565,-0.2962135672569275,-0.2605377733707428,-0.918900191783905,0,0,0,-1,-1,2026-05-26T14:10:01.685+02:00,1671,1.093336,0,0,1393.844,0,0,2026-05-26T15:58:47.639+02:00,801496810.2775888,0,2.61,102.2324,0
2026-05-26T16:00:11.421+02:00,1779804010.999799,53.23609491349361,10.40157582830425,26.00906,0,0.3080157,-1,-1,4.029364438188564,2.00036958493258,-9999,3879.075969291667,-0.4249725341796875,-0.22857666015625,-1.153915405273438,3879.065894291667,-0.6818296390258863,-0.3868166902155264,-0.01575215370450597,-0.3837474286556244,0.4148926734924316,-0.6041573286056519,-0.1315635740756989,0.1010434329509735,-0.2257564663887024,XArbitraryZVertical,-0.07154590726410023,-0.1785534136255491,-0.326678558954382,0.9253544406932304,-0.2907234132289886,-0.2590786814689636,-0.9210636019706726,0,0,0,-1,-1,2026-05-26T14:10:01.685+02:00,1671,1.093336,0,0,1393.844,0,0,2026-05-26T15:58:47.639+02:00,801496810.2775888,0,2.61,102.2324,0
2026-05-26T16:00:11.431+02:00,1779804010.999799,53.23609491349361,10.40157582830425,26.00906,0,0.3080157,-1,-1,4.029364438188564,2.00036958493258,-9999,3879.086045291667,-0.437957763671875,-0.2564849853515625,-1.126708984375,3879.075969291667,-0.6888247075159675,-0.3828178607440246,-0.01730480377836374,-0.4099000096321106,0.4035162031650543,-0.5735923647880554,-0.1464475691318512,0.05857411026954651,-0.2377435564994812,XArbitraryZVertical,-0.07222713285943654,-0.1761953812481652,-0.3299155027126465,0.924604856872845,-0.2854066789150238,-0.2570299208164215,-0.9232977032661438,0,0,0,-1,-1,2026-05-26T14:10:01.685+02:00,1671,1.093336,0,0,1393.844,0,0,2026-05-26T15:58:47.639+02:00,801496810.2775888,0,2.61,102.2324,0
2026-05-26T16:00:11.443+02:00,1779804010.999799,53.23609491349361,10.40157582830425,26.00906,0,0.3080157,-1,-1,4.029364438188564,2.00036958493258,-9999,3879.096121291667,-0.4954833984375,-0.2588348388671875,-1.10357666015625,3879.086045291667,-0.695696008880041,-0.3786446244158246,-0.01909168984603662,-0.4400962591171265,0.4552326500415802,-0.5502638816833496,-0.1443149745464325,0.02257385849952698,-0.2254714369773865,XArbitraryZVertical,-0.07296123182651713,-0.1737183557800297,-0.3330806324983456,0.9238808496998723,-0.2799709141254425,-0.254751592874527,-0.9255905747413635,0,0,0,-1,-1,2026-05-26T14:10:01.685+02:00,1671,1.093336,0,0,1393.844,0,0,2026-05-26T15:58:47.639+02:00,801496810.2775888,0,2.61,102.2324,0
2026-05-26T16:00:11.451+02:00,1779804010.999799,53.23609491349361,10.40157582830425,26.00906,0,0.3080157,-1,-1,4.029364438188564,2.00036958493258,-9999,3879.106197291667,-0.53515625,-0.2069244384765625,-1.109115600585938,3879.096121291667,-0.7023007818914544,-0.3737338085238468,-0.02161281439675011,-0.4997564554214478,0.5378290414810181,-0.4833894670009613,-0.1691873967647552,-0.007014960050582886,-0.194865882396698,XArbitraryZVertical,-0.07387111814554972,-0.1707818795483952,-0.3360851476678104,0.9232677240256901,-0.2739736437797546,-0.2517741024494171,-0.9281962513923645,0,0,0,-1,-1,2026-05-26T14:10:01.685+02:00,1671,1.093336,0,0,1393.844,0,0,2026-05-26T15:58:47.639+02:00,801496810.2775888,0,2.61,102.2324,0
2026-05-26T16:00:11.461+02:00,1779804010.999799,53.23609491349361,10.40157582830425,26.00906,0,0.3080157,-1,-1,4.029364438188564,2.00036958493258,-9999,3879.116273291667,-0.5186767578125,-0.169525146484375,-1.142257690429688,3879.106197291667,-0.70842658448276,-0.3680051225812812,-0.02462906926123036,-0.4953193664550781,0.6202019453048706,-0.4321438372135162,-0.2352314591407776,-0.005666598677635193,-0.171114444732666,XArbitraryZVertical,-0.0748122176416547,-0.1673953007275072,-0.3388584053791441,0.9227983949152897,-0.2673625349998474,-0.2483464479446411,-0.9310431480407715,0,0,0,-1,-1,2026-05-26T14:10:01.685+02:00,1671,1.093336,0,0,1393.844,0,0,2026-05-26T15:58:47.639+02:00,801496810.2775888,0,2.61,102.2324,0
2026-05-26T16:00:11.471+02:00,1779804010.999799,53.23609491349361,10.40157582830425,26.00906,0,0.3080157,-1,-1,4.029364438188564,2.00036958493258,-9999,3879.126348291667,-0.4734344482421875,-0.17327880859375,-1.169769287109375,3879.116273291667,-0.7139689197182147,-0.3614645517287732,-0.0278608532815683,-0.5027482509613037,0.7048382163047791,-0.3626936078071594,-0.2763023674488068,0.04443168640136719,-0.1774272322654724,XArbitraryZVertical,-0.0756467852409797,-0.1636127205279797,-0.341379267287667,0.9224795864798292,-0.2601355910301208,-0.244749054312706,-0.9340382218360901,0,0,0,-1,-1,2026-05-26T14:10:01.685+02:00,1671,1.093336,0,0,1393.844,0,0,2026-05-26T15:58:47.639+02:00,801496810.2775888,0,2.61,102.2324,0
2026-05-26T16:00:11.482+02:00,1779804010.999799,53.23609491349361,10.40157582830425,26.00906,0,0.3080157,-1,-1,4.029364438188564,2.00036958493258,-9999,3879.136424291667,-0.4362945556640625,-0.220977783203125,-1.149246215820312,3879.126348291667,-0.7189068247545073,-0.3540868358864782,-0.03175985315719457,-0.5667634606361389,0.7837548851966858,-0.285541832447052,-0.2612149119377136,0.07236702740192413,-0.2101432681083679,XArbitraryZVertical,-0.07657667622572262,-0.1593448163740133,-0.3436025577046038,0.9223244858374803,-0.252304345369339,-0.2405493855476379,-0.9372718334197998,0,0,0,-1,-1,2026-05-26T14:10:01.685+02:00,1671,1.093336,0,0,1393.844,0,0,2026-05-26T15:58:47.639+02:00,801496810.2775888,0,2.61,102.2324,0
2026-05-26T16:00:11.492+02:00,1779804010.999799,53.23609491349361,10.40157582830425,26.00906,0,0.3080157,-1,-1,4.029364438188564,2.00036958493258,-9999,3879.146500291667,-0.3958740234375,-0.2731475830078125,-1.121932983398438,3879.136424291667,-0.7234110283767003,-0.3461208250938821,-0.03643648841237138,-0.6154415011405945,0.8256123065948486,-0.240023598074913,-0.2234740108251572,0.05924959480762482,-0.2294807434082031,XArbitraryZVertical,-0.07770950139453357,-0.1546787681647264,-0.3455921062245291,0.9222807162831478,-0.244055300951004,-0.2356259375810623,-0.9407005310058594,0,0,0,-1,-1,2026-05-26T14:10:01.685+02:00,1671,1.093336,0,0,1393.844,0,0,2026-05-26T15:58:47.639+02:00,801496810.2775888,0,2.61,102.2324,0
2026-05-26T16:00:11.502+02:00,1779804010.999799,53.23609491349361,10.40157582830425,26.00906,0,0.3080157,-1,-1,4.029364438188564,2.00036958493258,-9999,3879.156576291667,-0.349151611328125,-0.2557830810546875,-1.092239379882812,3879.146500291667,-0.7277013430517492,-0.3379137569130382,-0.04187552308741872,-0.6764598488807678,0.8251854181289673,-0.1934883147478104,-0.1968486309051514,0.0002058446407318115,-0.2005537748336792,XArbitraryZVertical,-0.07911584444191727,-0.1497666539455992,-0.3474411157896889,0.9222771580288759,-0.2356465011835098,-0.2299726903438568,-0.9442368745803833,0,0,0,-1,-1,2026-05-26T14:10:01.685+02:00,1671,1.093336,0,0,1393.844,0,0,2026-05-26T15:58:47.639+02:00,801496810.2775888,0,2.61,102.2324,0
2026-05-26T16:00:11.512+02:00,1779804010.999799,53.23609491349361,10.40157582830425,26.00906,0,0.3080157,-1,-1,4.029364438188564,2.00036958493258,-9999,3879.166651291667,-0.3303985595703125,-0.2071533203125,-1.116989135742188,3879.156576291667,-0.731549818132064,-0.3299061184187564,-0.04783018209985127,-0.6784473657608032,0.8010132312774658,-0.1406887471675873,-0.1626708656549454,-0.05110003054141998,-0.1695394515991211,XArbitraryZVertical,-0.08074308265398684,-0.1448625764651121,-0.349050287078469,0.9223117946037702,-0.2275268882513046,-0.2238480895757675,-0.9476938247680664,0,0,0,-1,-1,2026-05-26T14:10:01.685+02:00,1671,1.093336,0,0,1393.844,0,0,2026-05-26T15:58:47.639+02:00,801496810.2775888,0,2.61,102.2324,0
2026-05-26T16:00:11.522+02:00,1779804010.999799,53.23609491349361,10.40157582830425,26.00906,0,0.3080157,-1,-1,4.029364438188564,2.00036958493258,-9999,3879.176727291667,-0.348876953125,-0.1878662109375,-1.158798217773438,3879.166651291667,-0.7348354820914272,-0.3220143224610686,-0.05368611700511851,-0.6309858560562134,0.8000044226646423,-0.1059390306472778,-0.1244356036186218,-0.03220118582248688,-0.1408441662788391,XArbitraryZVertical,-0.08228908519251511,-0.1400426050275797,-0.350417551138505,0.9224012198595946,-0.2196043282747269,-0.2178598493337631,-0.9509527087211609,0,0,0,-1,-1,2026-05-26T14:10:01.685+02:00,1671,1.093336,0,0,1393.844,0,0,2026-05-26T15:58:47.639+02:00,801496810.2775888,0,2.61,102.2324,0
2026-05-26T16:00:11.532+02:00,1779804010.999799,53.23609491349361,10.40157582830425,26.00906,0,0.3080157,-1,-1,4.029364438188564,2.00036958493258,-9999,3879.186803291667,-0.3629150390625,-0.1945953369140625,-1.17535400390625,3879.176727291667,-0.7376073508472412,-0.3141151242713825,-0.05909480895036985,-0.5576367378234863,0.7997285127639771,-0.0811687707901001,-0.1186531484127045,0.009860217571258545,-0.1683942675590515,XArbitraryZVertical,-0.08357957287230323,-0.1353124936965382,-0.3515971018390699,0.9225422899099149,-0.2117301523685455,-0.2123443484306335,-0.9539812207221985,0,0,0,-1,-1,2026-05-26T14:10:01.685+02:00,1671,1.093336,0,0,1393.844,0,0,2026-05-26T15:58:47.639+02:00,801496810.2775888,0,2.61,102.2324,0
2026-05-26T16:00:11.542+02:00,1779804010.999799,53.23609491349361,10.40157582830425,26.00906,0,0.3080157,-1,-1,4.029364438188564,2.00036958493258,-9999,3879.196879291667,-0.350860595703125,-0.229400634765625,-1.16546630859375,3879.186803291667,-0.7399224907532668,-0.3062059122499289,-0.06399560367062668,-0.5104788541793823,0.7989423871040344,-0.05888823419809341,-0.1474742740392685,0.01950725913047791,-0.2052206993103027,XArbitraryZVertical,-0.08459350888277802,-0.1306819733043419,-0.3526179718829874,0.9227277470174637,-0.203889861702919,-0.2073582112789154,-0.9567818641662598,0,0,0,-1,-1,2026-05-26T14:10:01.685+02:00,1671,1.093336,0,0,1393.844,0,0,2026-05-26T15:58:47.639+02:00,801496810.2775888,0,2.61,102.2324,0
2026-05-26T16:00:11.552+02:00,1779804010.999799,53.23609491349361,10.40157582830425,26.00906,0,0.3080157,-1,-1,4.029364438188564,2.00036958493258,-9999,3879.206955291667,-0.3328399658203125,-0.289306640625,-1.132980346679688,3879.196879291667,-0.7419835806952892,-0.2982162148676632,-0.06878793245100989,-0.529066801071167,0.8121803998947144,-0.05077870935201645,-0.1662042587995529,0.0055961012840271,-0.2165862321853638,XArbitraryZVertical,-0.08551787916749037,-0.1260393850032893,-0.3535442704031436,0.9229339140758051,-0.1959936171770096,-0.2024955153465271,-0.9594696760177612,0,0,0,-1,-1,2026-05-26T14:10:01.685+02:00,1671,1.093336,0,0,1393.844,0,0,2026-05-26T15:58:47.639+02:00,801496810.2775888,0,2.61,102.2324,0
2026-05-26T16:00:11.562+02:00,1779804010.999799,53.23609491349361,10.40157582830425,26.00906,0,0.3080157,-1,-1,4.029364438188564,2.00036958493258,-9999,3879.217030291667,-0.3017578125,-0.31805419921875,-1.077011108398438,3879.206955291667,-0.7442521311556793,-0.2901471162830079,-0.07424821631794727,-0.6351575255393982,0.8138722777366638,-0.06764344125986099,-0.1608628183603287,-0.03950974345207214,-0.1996099948883057,XArbitraryZVertical,-0.08673931012647185,-0.1212245275484434,-0.3545310766728916,0.9230863157429753,-0.1879683434963226,-0.1969556957483292,-0.9622246623039246,0,0,0,-1,-1,2026-05-26T14:10:01.685+02:00,1671,1.093336,0,0,1393.844,0,0,2026-05-26T15:58:47.639+02:00,801496810.2775888,0,2.61,102.2324,0
2026-05-26T16:00:11.572+02:00,1779804010.999799,53.23609491349361,10.40157582830425,26.00906,0,0.3080157,-1,-1,4.029364438188564,2.00036958493258,-9999,3879.227106291667,-0.252899169921875,-0.29888916015625,-1.019805908203125,3879.217030291667,-0.7468761936503637,-0.2822139357773166,-0.07995100576563219,-0.5663694739341736,0.8036041855812073,-0.1159548535943031,-0.1496961861848831,-0.1047603935003281,-0.1624236702919006,XArbitraryZVertical,-0.08810739957334411,-0.116406483843964,-0.3556709606196348,0.9231385161000025,-0.1799546927213669,-0.1911380439996719,-0.9649261832237244,0,0,0,-1,-1,2026-05-26T14:10:01.685+02:00,1671,1.093336,0,0,1393.844,0,0,2026-05-26T15:58:47.639+02:00,801496810.2775888,0,2.61,102.2324,0
2026-05-26T16:00:11.582+02:00,1779804010.999799,53.23609491349361,10.40157582830425,26.00906,0,0.3080157,-1,-1,4.029364438188564,2.00036958493258,-9999,3879.237182291667,-0.2109832763671875,-0.237457275390625,-0.9923553466796875,3879.227106291667,-0.7494134697499986,-0.2744652379244878,-0.08379231141270585,-0.2907285690307617,0.7670475244522095,-0.153108611702919,-0.1236764490604401,-0.1310658603906631,-0.1022863984107971,XArbitraryZVertical,-0.08863697983643465,-0.1120131665959863,-0.3569082388740279,0.9231538410229739,-0.1720083802938461,-0.1871409267187119,-0.9671563506126404,0,0,0,-1,-1,2026-05-26T14:10:01.685+02:00,1671,1.093336,0,0,1393.844,0,0,2026-05-26T15:58:47.639+02:00,801496810.2775888,0,2.61,102.2324,0
2026-05-26T16:00:11.592+02:00,1779804010.999799,53.23609491349361,10.40157582830425,26.00906,0,0.3080157,-1,-1,4.029364438188564,2.00036958493258,-9999,3879.247258291667,-0.1940765380859375,-0.1689910888671875,-0.9542083740234375,3879.237182291667,-0.7512942022334523,-0.2671940911668648,-0.08467733513398493,0.02924724481999874,0.7065759301185608,-0.1551814079284668,-0.08196589350700378,-0.1075611263513565,-0.04623335599899292,XArbitraryZVertical,-0.08784768095358153,-0.1084109949626533,-0.3580348843979425,0.9232230878767362,-0.1645245850086212,-0.1860942542552948,-0.9686591625213623,0,0,0,-1,-1,2026-05-26T14:10:01.685+02:00,1671,1.093336,0,0,1393.844,0,0,2026-05-26T15:58:47.639+02:00,801496810.2775888,0,2.61,102.2324,0
2026-05-26T16:00:11.602+02:00,1779804010.999799,53.23609491349361,10.40157582830425,26.00906,0,0.3080157,-1,-1,4.029364438188564,2.00036958493258,-9999,3879.257334291667,-0.21087646484375,-0.149169921875,-0.9572906494140625,3879.247258291667,-0.7524024114315566,-0.2605068721012477,-0.08248253159638309,0.3329663872718811,0.6411514282226562,-0.1688676625490189,-0.04999344050884247,-0.03917789459228516,-0.01746869087219238,XArbitraryZVertical,-0.08569948529026623,-0.1056804205528409,-0.3589874927865367,0.9233715627859421,-0.1576481610536575,-0.1881322860717773,-0.9694087505340576,0,0,0,-1,-1,2026-05-26T14:10:01.685+02:00,1671,1.093336,0,0,1393.844,0,0,2026-05-26T15:58:47.639+02:00,801496810.2775888,0,2.61,102.2324,0
2026-05-26T16:00:11.612+02:00,1779804010.999799,53.23609491349361,10.40157582830425,26.00906,0,0.3080157,-1,-1,4.029364438188564,2.00036958493258,-9999,3879.267409291667,-0.2532501220703125,-0.1620025634765625,-0.967803955078125,3879.257334291667,-0.7529662315686734,-0.2542965345934411,-0.07760773943456399,0.5568009614944458,0.603756308555603,-0.1816056370735168,-0.04251225292682648,0.03030282258987427,0.01798129081726074,XArbitraryZVertical,-0.08237129103888821,-0.1036885094835523,-0.3598350186728964,0.9235703952874734,-0.1512438654899597,-0.1928394436836243,-0.9695041179656982,0,0,0,-1,-1,2026-05-26T14:10:01.685+02:00,1671,1.093336,0,0,1393.844,0,0,2026-05-26T15:58:47.639+02:00,801496810.2775888,0,2.61,102.2324,0
2026-05-26T16:00:11.623+02:00,1779804010.999799,53.23609491349361,10.40157582830425,26.00906,0,0.3080157,-1,-1,4.029364438188564,2.00036958493258,-9999,3879.277485291667,-0.27801513671875,-0.1651458740234375,-0.9548492431640625,3879.267409291667,-0.753049294806006,-0.2483709057540444,-0.07129355616680587,0.6411997079849243,0.571709156036377,-0.1431447863578796,-0.07040567696094513,0.04852554202079773,0.009472310543060303,XArbitraryZVertical,-0.07840305345022706,-0.1021129450195481,-0.3605221492041816,0.9238232896152661,-0.1451704949140549,-0.198992446064949,-0.9691891074180603,0,0,0,-1,-1,2026-05-26T14:10:01.685+02:00,1671,1.093336,0,0,1393.844,0,0,2026-05-26T15:58:47.639+02:00,801496810.2775888,0,2.61,102.2324,0
2026-05-26T16:00:11.633+02:00,1779804010.999799,53.23609491349361,10.40157582830425,26.00906,0,0.3080157,-1,-1,4.029364438188564,2.00036958493258,-9999,3879.287561291667,-0.2706756591796875,-0.1726226806640625,-0.97216796875,3879.277485291667,-0.7526912964006074,-0.2427817732273082,-0.06486246333423371,0.6019068956375122,0.5353496074676514,-0.1030021607875824,-0.1184173226356506,0.04229995608329773,0.002180516719818115,XArbitraryZVertical,-0.07441551873485687,-0.1007294538251674,-0.3609762591424619,0.9241276362234474,-0.1395324915647507,-0.2052943259477615,-0.9687026739120483,0,0,0,-1,-1,2026-05-26T14:10:01.685+02:00,1671,1.093336,0,0,1393.844,0,0,2026-05-26T15:58:47.639+02:00,801496810.2775888,0,2.61,102.2324,0
2026-05-26T16:00:11.643+02:00,1779804010.999799,53.23609491349361,10.40157582830425,26.00906,0,0.3080157,-1,-1,4.029364438188564,2.00036958493258,-9999,3879.297637291667,-0.2653045654296875,-0.1777191162109375,-0.9844512939453125,3879.287561291667,-0.7523334377918037,-0.2375250409746716,-0.05962315842103228,0.4056577682495117,0.5023234486579895,-0.07444295287132263,-0.1441055089235306,0.04523684084415436,0.01288425922393799,XArbitraryZVertical,-0.0710342942260441,-0.09927739832286417,-0.3613234786081866,0.9244151012712192,-0.1342758536338806,-0.2104285061359406,-0.9683438539505005,0,0,0,-1,-1,2026-05-26T14:10:01.685+02:00,1671,1.093336,0,0,1393.844,0,0,2026-05-26T15:58:47.639+02:00,801496810.2775888,0,2.61,102.2324,0
2026-05-26T16:00:11.653+02:00,1779804010.999799,53.23609491349361,10.40157582830425,26.00906,0,0.3080157,-1,-1,4.029364438188564,2.00036958493258,-9999,3879.307712291667,-0.263580322265625,-0.1788177490234375,-0.9803619384765625,3879.297637291667,-0.7522443642599669,-0.232392315434083,-0.05697899782501721,0.09464489668607712,0.5195341110229492,-0.02715460583567619,-0.1397683918476105,0.03901256620883942,-0.006245613098144531,XArbitraryZVertical,-0.0688832490151973,-0.09739410913839155,-0.3616199665941521,0.9246622527419102,-0.129198282957077,-0.2130085229873657,-0.9684705138206482,0,0,0,-1,-1,2026-05-26T14:10:01.685+02:00,1671,1.093336,0,0,1393.844,0,0,2026-05-26T15:58:47.639+02:00,801496810.2775888,0,2.61,102.2324,0
2026-05-26T16:00:11.663+02:00,1779804010.999799,53.23609491349361,10.40157582830425,26.00906,0,0.3080157,-1,-1,4.029364438188564,2.00036958493258,-9999,3879.317788291667,-0.2515869140625,-0.19122314453125,-0.9024200439453125,3879.307712291667,-0.7525440514481809,-0.2269736100531595,-0.05812857355784392,-0.3232964277267456,0.5599161982536316,0.01318349782377481,-0.141410231590271,0.03341008722782135,-0.01618486642837524,XArbitraryZVertical,-0.06844769518898296,-0.09466683901768595,-0.361877320815354,0.9248770720385077,-0.1239248588681221,-0.2118616104125977,-0.96941077709198,0,0,0,-1,-1,2026-05-26T14:10:01.685+02:00,1671,1.093336,0,0,1393.844,0,0,2026-05-26T15:58:47.639+02:00,801496810.2775888,0,2.61,102.2324,0
2026-05-26T16:00:11.673+02:00,1779804010.999799,53.23609491349361,10.40157582830425,26.00906,0,0.3080157,-1,-1,4.029364438188564,2.00036958493258,-9999,3879.327864291667,-0.20709228515625,-0.2011260986328125,-0.7793426513671875,3879.317788291667,-0.7535142501808989,-0.2214524409699292,-0.0630792871517231,-0.6700975894927979,0.5394002199172974,0.02406157925724983,-0.14398393034935,0.02782744169235229,-0.004198670387268066,XArbitraryZVertical,-0.06977666151115489,-0.09116813365014304,-0.3622319812692561,0.9249904480650769,-0.1185435578227043,-0.206950381398201,-0.9711431264877319,0,0,0,-1,-1,2026-05-26T14:10:01.685+02:00,1671,1.093336,0,0,1393.844,0,0,2026-05-26T15:58:47.639+02:00,801496810.2775888,0,2.61,102.2324,0
2026-05-26T16:00:11.683+02:00,1779804010.999799,53.23609491349361,10.40157582830425,26.00906,0,0.3080157,-1,-1,4.029364438188564,2.00036958493258,-9999,3879.337940291667,-0.11175537109375,-0.158477783203125,-0.7112579345703125,3879.327864291667,-0.75490036260584,-0.2166172506944266,-0.07063176097465589,-0.8098786473274231,0.4369415044784546,0.02374599501490593,-0.135104775428772,0.005624815821647644,0.08556413650512695,XArbitraryZVertical,-0.07244521054173064,-0.08748835079180023,-0.3626152459839574,0.9249905260399236,-0.1138118579983711,-0.1994572132825851,-0.9732747077941895,0,0,0,-1,-1,2026-05-26T14:10:01.685+02:00,1671,1.093336,0,0,1393.844,0,0,2026-05-26T15:58:47.639+02:00,801496810.2775888,0,2.61,102.2324,0
2026-05-26T16:00:11.693+02:00,1779804010.999799,53.23609491349361,10.40157582830425,26.00906,0,0.3080157,-1,-1,4.029364438188564,2.00036958493258,-9999,3879.348016291667,-0.0637969970703125,-0.176544189453125,-0.754486083984375,3879.337940291667,-0.7566358525124879,-0.2129528636959011,-0.07742626596988821,-0.5547347664833069,0.3178265690803528,-0.06714476644992828,-0.08748609572649002,-0.004699096083641052,0.2097837924957275,XArbitraryZVertical,-0.07498717821025094,-0.08447186475496965,-0.3631685577900319,0.924851311593895,-0.1100694611668587,-0.1926580816507339,-0.9750730991363525,0,0,0,-1,-1,2026-05-26T14:10:01.685+02:00,1671,1.093336,0,0,1393.844,0,0,2026-05-26T15:58:47.639+02:00,801496810.2775888,0,2.61,102.2324,0
2026-05-26T16:00:11.703+02:00,1779804010.999799,53.23609491349361,10.40157582830425,26.00906,0,0.3080157,-1,-1,4.029364438188564,2.00036958493258,-9999,3879.358091291667,-0.119384765625,-0.2071380615234375,-0.8601837158203125,3879.348016291667,-0.758169279472762,-0.2106408120359055,-0.08295599555358166,-0.6281296014785767,0.1824711561203003,0.01747025549411774,0.007456623017787933,0.03244249522686005,0.264648973941803,XArbitraryZVertical,-0.07717919592850757,-0.08231793065123205,-0.3636534804599365,0.9246746108215768,-0.1076305881142616,-0.18710558116436,-0.9764257073402405,0,0,0,-1,-1,2026-05-26T14:10:01.685+02:00,1671,1.093336,0,0,1393.844,0,0,2026-05-26T15:58:47.639+02:00,801496810.2775888,0,2.61,102.2324,0
2026-05-26T16:00:11.713+02:00,1779804010.999799,53.23609491349361,10.40157582830425,26.00906,0,0.3080157,-1,-1,4.029364438188564,2.00036958493258,-9999,3879.368167291667,-0.26654052734375,-0.2373199462890625,-1.020721435546875,3879.358091291667,-0.7595492139487039,-0.2087033332983457,-0.08929503957573869,-0.6155557632446289,0.2420599162578583,-0.06623529642820358,0.03968353569507599,-0.003647491335868835,0.2135558128356934,XArbitraryZVertical,-0.07980272292228287,-0.08018839354358677,-0.3640093902217046,0.9244990066224906,-0.1056167781352997,-0.1807702332735062,-0.9778380393981934,0,0,0,-1,-1,2026-05-26T14:10:01.685+02:00,1671,1.093336,0,0,1393.844,0,0,2026-05-26T15:58:47.639+02:00,801496810.2775888,0,2.61,102.2324,0
2026-05-26T16:00:11.723+02:00,1779804010.999799,53.23609491349361,10.40157582830425,26.00906,0,0.3080157,-1,-1,4.029364438188564,2.00036958493258,-9999,3879.378243291667,-0.399169921875,-0.282379150390625,-1.110671997070312,3879.368167291667,-0.7623323049134992,-0.2060394353142932,-0.09451976921758339,-0.532528817653656,0.3431828022003174,-0.2323225289583206,-0.0308166891336441,-0.03178928792476654,0.1005985736846924,XArbitraryZVertical,-0.08183249240656373,-0.07786939623486278,-0.3651081295508686,0.9240864301816235,-0.1024688482284546,-0.175379291176796,-0.9791538119316101,0,0,0,-1,-1,2026-05-26T14:10:01.685+02:00,1671,1.093336,0,0,1393.844,0,0,2026-05-26T15:58:47.639+02:00,801496810.2775888,0,2.61,102.2324,0
2026-05-26T16:00:11.733+02:00,1779804010.999799,53.23609491349361,10.40157582830425,26.00906,0,0.3080157,-1,-1,4.029364438188564,2.00036958493258,-9999,3879.388319291667,-0.4100799560546875,-0.1974334716796875,-1.123489379882812,3879.378243291667,-0.7657320558331117,-0.2023683907309894,-0.09971501431791968,-0.6382253170013428,0.4445211589336395,-0.20327989757061,-0.1903088986873627,-0.07721306383609772,-0.05796116590499878,XArbitraryZVertical,-0.08368119821301809,-0.07505887515997856,-0.3665382947141646,0.9235871268895853,-0.09815853834152222,-0.1699488013982773,-0.9805520176887512,0,0,0,-1,-1,2026-05-26T14:10:01.685+02:00,1671,1.093336,0,0,1393.844,0,0,2026-05-26T15:58:47.639+02:00,801496810.2775888,0,2.61,102.2324,0
2026-05-26T16:00:11.743+02:00,1779804010.999799,53.23609491349361,10.40157582830425,26.00906,0,0.3080157,-1,-1,4.029364438188564,2.00036958493258,-9999,3879.398394291667,-0.365814208984375,-0.111175537109375,-1.150619506835938,3879.388319291667,-0.7690855943875066,-0.1977049655997039,-0.1063706027019463,-0.7687093019485474,0.552497386932373,-0.1947218328714371,-0.3136664927005768,-0.1147644966840744,-0.1328089237213135,XArbitraryZVertical,-0.08600771841002867,-0.07150984131801109,-0.3679128110293994,0.9231084172411644,-0.09291920065879822,-0.1630827933549881,-0.982227087020874,0,0,0,-1,-1,2026-05-26T14:10:01.685+02:00,1671,1.093336,0,0,1393.844,0,0,2026-05-26T15:58:47.639+02:00,801496810.2775888,0,2.61,102.2324,0
2026-05-26T16:00:11.754+02:00,1779804010.999799,53.23609491349361,10.40157582830425,26.00906,0,0.3080157,-1,-1,4.029364438188564,2.00036958493258,-9999,3879.408470291667,-0.3150482177734375,-0.0789642333984375,-1.133132934570312,3879.398394291667,-0.7728935788110888,-0.191974166681427,-0.113797708411216,-0.8175557851791382,0.672110378742218,-0.262431263923645,-0.3197996914386749,-0.02813003957271576,-0.1395708918571472,XArbitraryZVertical,-0.08849540505317355,-0.06729338288089977,-0.3695092452743259,0.9225524743170308,-0.08651135116815567,-0.1554026901721954,-0.9840558171272278,0,0,0,-1,-1,2026-05-26T14:10:01.685+02:00,1671,1.093336,0,0,1393.844,0,0,2026-05-26T15:58:47.639+02:00,801496810.2775888,0,2.61,102.2324,0
2026-05-26T16:00:11.763+02:00,1779804010.999799,53.23609491349361,10.40157582830425,26.00906,0,0.3080157,-1,-1,4.029364438188564,2.00036958493258,-9999,3879.418546291667,-0.231048583984375,-0.10986328125,-0.978973388671875,3879.408470291667,-0.7772784797154105,-0.1852209288143843,-0.1216276050151204,-0.8773050904273987,0.7612567543983459,-0.2956959903240204,-0.2810736298561096,0.04250355064868927,-0.1694509983062744,XArbitraryZVertical,-0.09098085822041557,-0.06249217585223196,-0.371406846769316,0.9218861833620821,-0.07892698794603348,-0.1472551226615906,-0.9859444499015808,0,0,0,-1,-1,2026-05-26T14:10:01.685+02:00,1671,1.093336,0,0,1393.844,0,0,2026-05-26T15:58:47.639+02:00,801496810.2775888,0,2.61,102.2324,0
2026-05-26T16:00:11.774+02:00,1779804010.999799,53.23609491349361,10.40157582830425,26.00906,0,0.3080157,-1,-1,4.029364438188564,2.00036958493258,-9999,3879.428622291667,-0.1075439453125,-0.2038726806640625,-0.8670196533203125,3879.418546291667,-0.7822594376137487,-0.1783675312780191,-0.1302155470290007,-0.9833190441131592,0.7129336595535278,-0.3586563766002655,-0.2362382113933563,0.06009961664676666,-0.1302946805953979,XArbitraryZVertical,-0.09379201825760955,-0.05745967787817406,-0.3735562885005848,0.9210630022137698,-0.07107380777597427,-0.1382856518030167,-0.9878388643264771,0,0,0,-1,-1,2026-05-26T14:10:01.685+02:00,1671,1.093336,0,0,1393.844,0,0,2026-05-26T15:58:47.639+02:00,801496810.2775888,0,2.61,102.2324,0
2026-05-26T16:00:11.784+02:00,1779804010.999799,53.23609491349361,10.40157582830425,26.00906,0,0.3080157,-1,-1,4.029364438188564,2.00036958493258,-9999,3879.438698291667,-0.0446929931640625,-0.208740234375,-0.8353729248046875,3879.428622291667,-0.7878603399774557,-0.1725463385400586,-0.1404871852741117,-1.235172033309937,0.596584677696228,-0.3606257736682892,-0.1519210040569305,0.008266597986221313,0.02976512908935547,XArbitraryZVertical,-0.09755990408923443,-0.05253172904015929,-0.3758655709646204,0.9200257782702134,-0.06408241391181946,-0.1275750696659088,-0.9897565841674805,0,0,0,-1,-1,2026-05-26T14:10:01.685+02:00,1671,1.093336,0,0,1393.844,0,0,2026-05-26T15:58:47.639+02:00,801496810.2775888,0,2.61,102.2324,0
2026-05-26T16:00:11.794+02:00,1779804010.999799,53.23609491349361,10.40157582830425,26.00906,0,0.3080157,-1,-1,4.029364438188564,2.00036958493258,-9999,3879.448773291667,-0.079833984375,-0.0955657958984375,-0.8356475830078125,3879.438698291667,-0.7937391180392714,-0.1677572373007439,-0.1531352127787485,-1.362940073013306,0.5211365818977356,-0.35512375831604,-0.03641603887081146,-0.09802545607089996,0.1331325173377991,XArbitraryZVertical,-0.1025884071711633,-0.04757907488429617,-0.3781351722746595,0.918817482468821,-0.05805114284157753,-0.1144684478640556,-0.9917293190956116,0,0,0,-1,-1,2026-05-26T14:10:01.685+02:00,1671,1.093336,0,0,1393.844,0,0,2026-05-26T15:58:47.639+02:00,801496810.2775888,0,2.61,102.2324,0
2026-05-26T16:00:11.804+02:00,1779804010.999799,53.23609491349361,10.40157582830425,26.00906,0,0.3080157,-1,-1,4.029364438188564,2.00036958493258,-9999,3879.458849291667,-0.1443328857421875,0.006103515625,-0.91119384765625,3879.448773291667,-0.7996211765263976,-0.1637492301608872,-0.1649062296782946,-1.13021981716156,0.4480868577957153,-0.4019290804862976,0.008182626217603683,-0.09584014862775803,0.1577779650688171,XArbitraryZVertical,-0.1073357245642093,-0.04312675870250137,-0.3804175920496301,0.9175518668119013,-0.05273830145597458,-0.1022036820650101,-0.9933645129203796,0,0,0,-1,-1,2026-05-26T14:10:01.685+02:00,1671,1.093336,0,0,1393.844,0,0,2026-05-26T15:58:47.639+02:00,801496810.2775888,0,2.61,102.2324,0
2026-05-26T16:00:11.814+02:00,1779804010.999799,53.23609491349361,10.40157582830425,26.00906,0,0.3080157,-1,-1,4.029364438188564,2.00036958493258,-9999,3879.468925291667,-0.1970062255859375,0.1251983642578125,-1.016342163085938,3879.458849291667,-0.8054754731275778,-0.1605618362014686,-0.1742865759903555,-0.8971642255783081,0.3924283981323242,-0.4205222129821777,-0.0391598641872406,0.01088146865367889,0.1559888124465942,XArbitraryZVertical,-0.1111238966920935,-0.03949675252034365,-0.3827725618304335,0.9162840673496659,-0.04818145558238029,-0.09228711575269699,-0.9945660829544067,0,0,0,-1,-1,2026-05-26T14:10:01.685+02:00,1671,1.093336,0,0,1393.844,0,0,2026-05-26T15:58:47.639+02:00,801496810.2775888,0,2.61,102.2324,0
2026-05-26T16:00:11.824+02:00,1779804010.999799,53.23609491349361,10.40157582830425,26.00906,0,0.3080157,-1,-1,4.029364438188564,2.00036958493258,-9999,3879.479001291667,-0.2204132080078125,0.1432952880859375,-1.081527709960938,3879.468925291667,-0.8109881177556291,-0.1574822568250988,-0.1817128714562087,-0.7261059284210205,0.4233956336975098,-0.4164172112941742,-0.107865110039711,0.105049766600132,0.06905382871627808,XArbitraryZVertical,-0.114016696873635,-0.03630273532428468,-0.3850703858669834,0.9150972185265569,-0.0437767505645752,-0.08432833850383759,-0.9954759478569031,0,0,0,-1,-1,2026-05-26T14:10:01.685+02:00,1671,1.093336,0,0,1393.844,0,0,2026-05-26T15:58:47.639+02:00,801496810.2775888,0,2.61,102.2324,0
2026-05-26T16:00:11.847+02:00,1779804010.999799,53.23609491349361,10.40157582830425,26.00906,0,0.3080157,-1,-1,4.029364438188564,2.00036958493258,-9999,3879.489077291667,-0.1892242431640625,0.01470947265625,-1.141830444335938,3879.479001291667,-0.8163457049439237,-0.1538344084540589,-0.187298848396837,-0.5537843108177185,0.4907195270061493,-0.4317566752433777,-0.1624963581562042,0.2151313126087189,-0.02980375289916992,XArbitraryZVertical,-0.1159437665573539,-0.03321114537460634,-0.3874298501968846,0.913976021989706,-0.03881286457180977,-0.07819894701242447,-0.9961819648742676,0,0,0,-1,-1,2026-05-26T14:10:01.685+02:00,1671,1.093336,0,0,1393.844,0,0,2026-05-26T15:58:47.639+02:00,801496810.2775888,0,2.61,102.2324,0
2026-05-26T16:00:11.850+02:00,1779804010.999799,53.23609491349361,10.40157582830425,26.00906,0,0.3080157,-1,-1,4.029364438188564,2.00036958493258,-9999,3879.499152291667,-0.0546722412109375,-0.0879058837890625,-1.1400146484375,3879.489077291667,-0.8213929224384049,-0.1497248591271867,-0.1922862615481682,-0.5825373530387878,0.4919064939022064,-0.3988626599311829,-0.1871249377727509,0.2053947895765305,-0.09213489294052124,XArbitraryZVertical,-0.1174887775248912,-0.03003781612374895,-0.3897084341994574,0.9129191019671956,-0.03345612436532974,-0.07268910855054855,-0.9967933297157288,0,0,0,-1,-1,2026-05-26T14:10:01.685+02:00,1671,1.093336,0,0,1393.844,0,0,2026-05-26T15:58:47.639+02:00,801496810.2775888,0,2.61,102.2324,0
2026-05-26T16:00:11.854+02:00,1779804010.999799,53.23609491349361,10.40157582830425,26.00906,0,0.3080157,-1,-1,4.029364438188564,2.00036958493258,-9999,3879.509228291667,0.123748779296875,-0.11077880859375,-1.14422607421875,3879.499152291667,-0.8263846833186973,-0.1464949824887932,-0.1973073057111488,-0.5472419261932373,0.3300222754478455,-0.4108514189720154,-0.149511843919754,0.06499363481998444,-0.1493605971336365,XArbitraryZVertical,-0.1192052376922373,-0.02725475506127632,-0.3919098757789324,0.9118408453398386,-0.02898547984659672,-0.06714512407779694,-0.9973220825195312,0,0,0,-1,-1,2026-05-26T14:10:01.685+02:00,1671,1.093336,0,0,1393.844,0,0,2026-05-26T15:58:47.639+02:00,801496810.2775888,0,2.61,102.2324,0
2026-05-26T16:00:11.864+02:00,1779804010.999799,53.23609491349361,10.40157582830425,26.00906,0,0.3080157,-1,-1,4.029364438188564,2.00036958493258,-9999,3879.519303541667,0.2350006103515625,-0.0643310546875,-1.1839599609375,3879.509228291667,-0.8312522588257619,-0.1452533416821854,-0.2022341967443779,-0.5288642644882202,0.1057311072945595,-0.3922790586948395,-0.00638783723115921,-0.032826267182827,-0.1388240456581116,XArbitraryZVertical,-0.1212558882074069,-0.02539566343830122,-0.3939402700755338,0.9107485293339317,-0.02652538567781448,-0.0617019385099411,-0.9977421164512634,0,0,0,-1,-1,2026-05-26T14:10:01.685+02:00,1671,1.093336,0,0,1393.844,0,0,2026-05-26T15:58:47.639+02:00,801496810.2775888,0,2.61,102.2324,0
2026-05-26T16:00:11.875+02:00,1779804010.999799,53.23609491349361,10.40157582830425,26.00906,0,0.3080157,-1,-1,4.029364438188564,2.00036958493258,-9999,3879.529379541667,0.220794677734375,-0.0213470458984375,-1.184005737304688,3879.519303541667,-0.8358779707309033,-0.1460032822564027,-0.2065198229792043,-0.4714620411396027,-0.0521264337003231,-0.3630119860172272,0.169113352894783,-0.05143636465072632,-0.1512239575386047,XArbitraryZVertical,-0.1233992926559264,-0.02457885984017661,-0.395769544037038,0.9096893794119016,-0.02610799297690392,-0.05691630765795708,-0.9980375170707703,0,0,0,-1,-1,2026-05-26T14:10:01.685+02:00,1671,1.093336,0,0,1393.844,0,0,2026-05-26T15:58:47.639+02:00,801496810.2775888,0,2.61,102.2324,0
2026-05-26T16:00:11.885+02:00,1779804010.999799,53.23609491349361,10.40157582830425,26.00906,0,0.3080157,-1,-1,4.029364438188564,2.00036958493258,-9999,3879.539454541667,0.15618896484375,-0.02545166015625,-1.140975952148438,3879.529379541667,-0.8399862874861168,-0.1476692367306549,-0.2112343932688829,-0.5548559427261353,-0.09941671788692474,-0.2947983145713806,0.2668695449829102,-0.005581643432378769,-0.1892138123512268,XArbitraryZVertical,-0.1259081647746122,-0.02411248701225229,-0.3972765391421798,0.9087006656389461,-0.0267419908195734,-0.05176089331507683,-0.9983013868331909,0,0,0,-1,-1,2026-05-26T14:10:01.685+02:00,1671,1.093336,0,0,1393.844,0,0,2026-05-26T15:58:47.639+02:00,801496810.2775888,0,2.61,102.2324,0
2026-05-26T16:00:11.895+02:00,1779804010.999799,53.23609491349361,10.40157582830425,26.00906,0,0.3080157,-1,-1,4.029364438188564,2.00036958493258,-9999,3879.549530541667,0.1132049560546875,-0.0911712646484375,-1.125259399414062,3879.539454541667,-0.8435666708953844,-0.1496734150645605,-0.216578802570611,-0.6212434768676758,-0.1453037858009338,-0.2298023849725723,0.240912139415741,0.0271029993891716,-0.1792899370193481,XArbitraryZVertical,-0.1287593640366783,-0.02369279146322543,-0.3984785350540554,0.9077854415562993,-0.02785367891192436,-0.0460391640663147,-0.9985512495040894,0,0,0,-1,-1,2026-05-26T14:10:01.685+02:00,1671,1.093336,0,0,1393.844,0,0,2026-05-26T15:58:47.639+02:00,801496810.2775888,0,2.61,102.2324,0
2026-05-26T16:00:11.905+02:00,1779804010.999799,53.23609491349361,10.40157582830425,26.00906,0,0.3080157,-1,-1,4.029364438188564,2.00036958493258,-9999,3879.559606541667,0.0639190673828125,-0.1216278076171875,-1.04583740234375,3879.549530541667,-0.8467194706845724,-0.1520528919760754,-0.2236013528135752,-0.8287711143493652,-0.1917157471179962,-0.1767301112413406,0.1777280867099762,0.007114909589290619,-0.1404809355735779,XArbitraryZVertical,-0.1324329354061788,-0.02311269082309206,-0.3993559099377385,0.9068859265711603,-0.02945845387876034,-0.03870061412453651,-0.9988165497779846,0,0,0,-1,-1,2026-05-26T14:10:01.685+02:00,1671,1.093336,0,0,1393.844,0,0,2026-05-26T15:58:47.639+02:00,801496810.2775888,0,2.61,102.2324,0
2026-05-26T16:00:11.915+02:00,1779804010.999799,53.23609491349361,10.40157582830425,26.00906,0,0.3080157,-1,-1,4.029364438188564,2.00036958493258,-9999,3879.569682541667,-0.0190887451171875,-0.125640869140625,-1.038864135742188,3879.559606541667,-0.8497174718509397,-0.1547302162902431,-0.2318993699276932,-0.8684014081954956,-0.2001105844974518,-0.1428114920854568,0.1406081765890121,-0.06801711767911911,-0.1199043393135071,XArbitraryZVertical,-0.1367331519314491,-0.02240010854491639,-0.4000531912884431,0.9059578097361904,-0.03140104189515114,-0.03011216409504414,-0.9990531802177429,0,0,0,-1,-1,2026-05-26T14:10:01.685+02:00,1671,1.093336,0,0,1393.844,0,0,2026-05-26T15:58:47.639+02:00,801496810.2775888,0,2.61,102.2324,0
