loggingTime(txt),locationTimestamp_since1970(s),locationLatitude(WGS84),locationLongitude(WGS84),locationAltitude(m),locationSpeed(m/s),locationSpeedAccuracy(m/s),locationCourse(°),locationCourseAccuracy(°),locationVerticalAccuracy(m),locationHorizontalAccuracy(m),locationFloor(Z),accelerometerTimestamp_sinceReboot(s),accelerometerAccelerationX(G),accelerometerAccelerationY(G),accelerometerAccelerationZ(G),motionTimestamp_sinceReboot(s),motionYaw(rad),motionRoll(rad),motionPitch(rad),motionRotationRateX(rad/s),motionRotationRateY(rad/s),motionRotationRateZ(rad/s),motionUserAccelerationX(G),motionUserAccelerationY(G),motionUserAccelerationZ(G),motionAttitudeReferenceFrame(txt),motionQuaternionX(R),motionQuaternionY(R),motionQuaternionZ(R),motionQuaternionW(R),motionGravityX(G),motionGravityY(G),motionGravityZ(G),motionMagneticFieldX(µT),motionMagneticFieldY(µT),motionMagneticFieldZ(µT),motionHeading(°),motionMagneticFieldCalibrationAccuracy(Z),pedometerStartDate(txt),pedometerNumberofSteps(N),pedometerAverageActivePace(s/m),pedometerCurrentPace(s/m),pedometerCurrentCadence(steps/s),pedometerDistance(m),pedometerFloorAscended(N),pedometerFloorDescended(N),pedometerEndDate(txt),altimeterTimestamp_sinceReboot(s),altimeterReset(bool),altimeterRelativeAltitude(m),altimeterPressure(kPa),label
2026-05-05T17:18:22.203+02:00,1777994301.000206,53.23567559016271,10.40148929693773,27.11746,0,0.3080157,-1,-1,8,6.336596657109493,-9999,3961.919403541667,0.066253662109375,-0.073944091796875,-0.9742584228515625,3961.914367541667,-6.30126391542935e-18,-3.011254116515924e-18,-2.984596159444853e-18,0.2076012790203094,-0.1004581600427628,0.0720311775803566,0.03676990419626236,-0.001215800642967224,-0.04128527641296387,XArbitraryZVertical,-1.492298016894635e-18,-1.505626994869003e-18,-3.150631825068759e-18,1.00000004210137,0.06895827502012253,-0.165837436914444,-0.9837391376495361,0,0,0,-1,-1,2026-05-05T16:12:27.330+02:00,1853,1.428074,0,0,1618.589,0,0,2026-05-05T17:18:20.497+02:00,799687100.5986646,0,0.8699999,100.7547,0
2026-05-05T17:18:22.204+02:00,1777994301.000206,53.23567559016271,10.40148929693773,27.11746,0,0.3080157,-1,-1,8,6.336596657109493,-9999,3961.929477541667,0.1660003662109375,-0.201324462890625,-0.9736785888671875,3961.924440541667,0.0003997791419796289,-0.0006192515138129156,0.001678557346561155,0.1375113725662231,-0.03297366201877594,0.02194444835186005,-0.01397689431905746,0.07466627657413483,-0.01037943363189697,XArbitraryZVertical,0.0008393403690038102,-0.000309457859085993,0.0001996296180094684,0.9999996272216528,0.06828294694423676,-0.1675160080194473,-0.9835017919540405,0,0,0,-1,-1,2026-05-05T16:12:27.330+02:00,1853,1.428074,0,0,1618.589,0,0,2026-05-05T17:18:20.497+02:00,799687100.5986646,0,0.8699999,100.7547,0
2026-05-05T17:18:22.210+02:00,1777994301.000206,53.23567559016271,10.40148929693773,27.11746,0,0.3080157,-1,-1,8,6.336596657109493,-9999,3961.939550541667,0.1089935302734375,-0.1675872802734375,-0.952972412109375,3961.934513541667,0.0008131704896410861,-0.0009237070365721912,0.003138259022129746,0.1509107947349548,-0.03653990104794502,0.05957198515534401,0.05766469240188599,0.03772374987602234,0.0122227668762207,XArbitraryZVertical,0.001569316298353162,-0.0004612148946323862,0.0004058599681135764,0.9999986145149303,0.0679151639342308,-0.1689798533916473,-0.9832768440246582,0,0,0,-1,-1,2026-05-05T16:12:27.330+02:00,1853,1.428074,0,0,1618.589,0,0,2026-05-05T17:18:20.497+02:00,799687100.5986646,0,0.8699999,100.7547,0
2026-05-05T17:18:22.221+02:00,1777994301.000206,53.23567559016271,10.40148929693773,27.11746,0,0.3080157,-1,-1,8,6.336596657109493,-9999,3961.949623541667,0.098175048828125,-0.1188201904296875,-0.9524993896484375,3961.944586541667,0.001235774937922323,-0.001363109109596961,0.004533377279368206,0.124879889190197,-0.05156359449028969,0.02244691923260689,0.08039860427379608,-0.03852763772010803,0.01921772956848145,XArbitraryZVertical,0.00226710683172658,-0.0006801520549996928,0.0006163408202930674,0.9999970223997495,0.06741330772638321,-0.1703804582357407,-0.9830696582794189,0,0,0,-1,-1,2026-05-05T16:12:27.330+02:00,1853,1.428074,0,0,1618.589,0,0,2026-05-05T17:18:20.497+02:00,799687100.5986646,0,0.8699999,100.7547,0
2026-05-05T17:18:22.231+02:00,1777994302.000194,53.2356729079537,10.40149281733706,27.82473,0,0.8273451,-1,-1,7.999999999999999,5.429927758788004,-9999,3961.959696541667,0.097686767578125,-0.1385650634765625,-0.9473724365234375,3961.954659541667,0.001410627579750562,-0.001862689124108733,0.00561810538065856,0.08999381214380264,-0.04713528975844383,0.01842448115348816,0.02700909972190857,0.04125536978244781,0.03177636861801147,XArbitraryZVertical,0.002809704018070473,-0.0009293592782538163,0.0007026944640873549,0.9999953556780062,0.06689351052045822,-0.1714586168527603,-0.9829176664352417,0,0,0,-1,-1,2026-05-05T16:12:27.330+02:00,1853,1.428074,0,0,1618.589,0,0,2026-05-05T17:18:20.497+02:00,799687100.5986646,0,0.8699999,100.7547,0
2026-05-05T17:18:22.241+02:00,1777994302.000194,53.2356729079537,10.40149281733706,27.82473,0,0.8273451,-1,-1,7.999999999999999,5.429927758788004,-9999,3961.969769541667,0.09307861328125,-0.1549072265625,-0.95098876953125,3961.964732541667,0.001664591786907516,-0.002266751777285002,0.006355764748562887,0.05102664604783058,-0.03244262933731079,0.03310289233922958,0.03474181145429611,0.04546152055263519,0.03221040964126587,XArbitraryZVertical,0.003178816878674491,-0.001130724490939702,0.0008286892544596544,0.999994060493852,0.06645449995994568,-0.1722010225057602,-0.9828177094459534,0,0,0,-1,-1,2026-05-05T16:12:27.330+02:00,1853,1.428074,0,0,1618.589,0,0,2026-05-05T17:18:20.497+02:00,799687100.5986646,0,0.8699999,100.7547,0
2026-05-05T17:18:22.252+02:00,1777994302.000194,53.2356729079537,10.40149281733706,27.82473,0,0.8273451,-1,-1,7.999999999999999,5.429927758788004,-9999,3961.979842541667,0.0959014892578125,-0.1637420654296875,-0.9586639404296875,3961.974805541667,0.002174261698378225,-0.002534592733699958,0.006625587426388559,0.005743319634348154,-0.02180170267820358,0.0653335303068161,0.02794841676950455,0.02444508671760559,0.03546184301376343,XArbitraryZVertical,0.003314160648247185,-0.001263686858136485,0.001082925485263234,0.9999931524066584,0.06610678136348724,-0.1725011318922043,-0.9827885031700134,0,0,0,-1,-1,2026-05-05T16:12:27.330+02:00,1853,1.428074,0,0,1618.589,0,0,2026-05-05T17:18:20.497+02:00,799687100.5986646,0,0.8699999,100.7547,0
2026-05-05T17:18:22.261+02:00,1777994302.000194,53.2356729079537,10.40149281733706,27.82473,0,0.8273451,-1,-1,7.999999999999999,5.429927758788004,-9999,3961.989915541667,0.0854644775390625,-0.165191650390625,-0.9642486572265625,3961.984878541667,0.002898462082996354,-0.002718251325358006,0.006400601313200585,-0.05189654231071472,-0.01429052278399467,0.07702681422233582,0.02913423627614975,0.01206666231155396,0.02724188566207886,XArbitraryZVertical,0.003202258196933004,-0.001354478746391886,0.001444872017374328,0.9999930226299236,0.06580596417188644,-0.1723297089338303,-0.9828387498855591,0,0,0,-1,-1,2026-05-05T16:12:27.330+02:00,1853,1.428074,0,0,1618.589,0,0,2026-05-05T17:18:20.497+02:00,799687100.5986646,0,0.8699999,100.7547,0
2026-05-05T17:18:22.271+02:00,1777994302.000194,53.2356729079537,10.40149281733706,27.82473,0,0.8273451,-1,-1,7.999999999999999,5.429927758788004,-9999,3961.999988541667,0.0837860107421875,-0.166839599609375,-0.974517822265625,3961.994951541667,0.003763157528845944,-0.002807181683182993,0.005621386275077557,-0.0964653417468071,-0.006454703398048878,0.1003174781799316,0.02687843888998032,0.005409106612205505,0.02236080169677734,XArbitraryZVertical,0.002813322387991763,-0.00139829369939786,0.00187762314729928,0.9999933940066154,0.06557458639144897,-0.171623095870018,-0.9829778671264648,0,0,0,-1,-1,2026-05-05T16:12:27.330+02:00,1853,1.428074,0,0,1618.589,0,0,2026-05-05T17:18:20.497+02:00,799687100.5986646,0,0.8699999,100.7547,0
2026-05-05T17:18:22.281+02:00,1777994302.000194,53.2356729079537,10.40149281733706,27.82473,0,0.8273451,-1,-1,7.999999999999999,5.429927758788004,-9999,3962.010061541667,0.0957794189453125,-0.182220458984375,-0.9857940673828125,3962.005024541667,0.004814221642994346,-0.002704767202567951,0.00444634237858162,-0.1316105425357819,0.02747077308595181,0.1064269095659256,0.01560039818286896,0.00630950927734375,0.01455867290496826,XArbitraryZVertical,0.002226416158946003,-0.001347024493953736,0.002404093725011321,0.999993746969094,0.06550008803606033,-0.1705398708581924,-0.9831713438034058,0,0,0,-1,-1,2026-05-05T16:12:27.330+02:00,1853,1.428074,0,0,1618.589,0,0,2026-05-05T17:18:20.497+02:00,799687100.5986646,0,0.8699999,100.7547,0
2026-05-05T17:18:22.291+02:00,1777994302.000194,53.2356729079537,10.40149281733706,27.82473,0,0.8273451,-1,-1,7.999999999999999,5.429927758788004,-9999,3962.020134541667,0.1110992431640625,-0.1894378662109375,-0.99114990234375,3962.015097541667,0.005955268966501564,-0.002374531780001378,0.003110474920916975,-0.1252889931201935,0.03400057554244995,0.1199179515242577,0.02443807572126389,-0.003913536667823792,0.002663016319274902,XArbitraryZVertical,0.001558764036832342,-0.001182627965601473,0.002975777837490348,0.9999936833819375,0.06563457846641541,-0.1693042367696762,-0.9833759069442749,0,0,0,-1,-1,2026-05-05T16:12:27.330+02:00,1853,1.428074,0,0,1618.589,0,0,2026-05-05T17:18:20.497+02:00,799687100.5986646,0,0.8699999,100.7547,0
2026-05-05T17:18:22.301+02:00,1777994302.000194,53.2356729079537,10.40149281733706,27.82473,0,0.8273451,-1,-1,7.999999999999999,5.429927758788004,-9999,3962.030207541667,0.0955810546875,-0.1594085693359375,-0.9811859130859375,3962.025170541667,0.00713652323853025,-0.002105915825704434,0.001944384030189473,-0.1026041358709335,0.01889699138700962,0.1160469129681587,0.03795109689235687,-0.02109329402446747,-0.006359517574310303,XArbitraryZVertical,0.0009759423368979569,-0.001049481474958242,0.003567226655177724,0.9999926265167771,0.06570188701152802,-0.1682377606630325,-0.9835544228553772,0,0,0,-1,-1,2026-05-05T16:12:27.330+02:00,1853,1.428074,0,0,1618.589,0,0,2026-05-05T17:18:20.497+02:00,799687100.5986646,0,0.8699999,100.7547,0
2026-05-05T17:18:22.311+02:00,1777994302.000194,53.2356729079537,10.40149281733706,27.82473,0,0.8273451,-1,-1,7.999999999999999,5.429927758788004,-9999,3962.040280541667,0.07391357421875,-0.1414794921875,-0.9713897705078125,3962.035243541667,0.008360956301856735,-0.001891869746917506,0.0009948833980397381,-0.08759429305791855,0.0265146978199482,0.1286156922578812,0.04426170885562897,-0.009996622800827026,-0.005482316017150879,XArbitraryZVertical,0.0005013915501248912,-0.0009438468004107874,0.004179992989666161,0.9999907055539777,0.06570840626955032,-0.1673868000507355,-0.9836992025375366,0,0,0,-1,-1,2026-05-05T16:12:27.330+02:00,1853,1.428074,0,0,1618.589,0,0,2026-05-05T17:18:20.497+02:00,799687100.5986646,0,0.8699999,100.7547,0
2026-05-05T17:18:22.321+02:00,1777994302.000194,53.2356729079537,10.40149281733706,27.82473,0,0.8273451,-1,-1,7.999999999999999,5.429927758788004,-9999,3962.050353541667,0.095367431640625,-0.153045654296875,-0.9712677001953125,3962.045316541667,0.009630213996361586,-0.0015218685789976,0.0001447787021440566,-0.07114032655954361,0.04062226414680481,0.1112889125943184,0.01293551921844482,0.02132679522037506,0.009405434131622314,XArbitraryZVertical,7.605245534986676e-05,-0.0007605768225301427,0.004815031843103662,0.9999881277847541,0.06586088240146637,-0.1666362285614014,-0.983816385269165,0,0,0,-1,-1,2026-05-05T16:12:27.330+02:00,1853,1.428074,0,0,1618.589,0,0,2026-05-05T17:18:20.497+02:00,799687100.5986646,0,0.8699999,100.7547,0
2026-05-05T17:18:22.331+02:00,1777994302.000194,53.2356729079537,10.40149281733706,27.82473,0,0.8273451,-1,-1,7.999999999999999,5.429927758788004,-9999,3962.060426541667,0.1123504638671875,-0.1708984375,-0.9717864990234375,3962.055389541667,0.01057600156749733,-0.001263982240674614,-0.0004264240288975911,-0.0476432591676712,0.00965608935803175,0.08264714479446411,0.01615059375762939,0.02085898816585541,0.0131911039352417,XArbitraryZVertical,-0.0002098670362480498,-0.0006331096896655715,0.005288109726547868,0.999985792105065,0.0659569725394249,-0.1661379188299179,-0.9838942289352417,0,0,0,-1,-1,2026-05-05T16:12:27.330+02:00,1853,1.428074,0,0,1618.589,0,0,2026-05-05T17:18:20.497+02:00,799687100.5986646,0,0.8699999,100.7547,0
2026-05-05T17:18:22.342+02:00,1777994302.000194,53.2356729079537,10.40149281733706,27.82473,0,0.8273451,-1,-1,7.999999999999999,5.429927758788004,-9999,3962.070499541667,0.1044769287109375,-0.1666412353515625,-0.9753570556640625,3962.065462541667,0.01129351120139516,-0.001174964902789564,-0.000991610662870696,-0.07319341599941254,0.005978530272841454,0.05985893681645393,0.03994058072566986,0.003154441714286804,0.01329416036605835,XArbitraryZVertical,-0.0004924799838842712,-0.0005902726730478564,0.005647015364249008,0.9999837301889942,0.06592492014169693,-0.1656300276517868,-0.9839820265769958,0,0,0,-1,-1,2026-05-05T16:12:27.330+02:00,1853,1.428074,0,0,1618.589,0,0,2026-05-05T17:18:20.497+02:00,799687100.5986646,0,0.8699999,100.7547,0
2026-05-05T17:18:22.352+02:00,1777994302.000194,53.2356729079537,10.40149281733706,27.82473,0,0.8273451,-1,-1,7.999999999999999,5.429927758788004,-9999,3962.080572541667,0.0927276611328125,-0.16619873046875,-0.9678192138671875,3962.075535541667,0.01167618571651177,-0.001086067958614844,-0.001954658807358617,-0.120524175465107,0.01330754905939102,0.02404368296265602,0.04560855776071548,-0.00747208297252655,0.009632647037506104,XArbitraryZVertical,-0.000974142167574642,-0.0005487301343146097,0.005838586650856603,0.9999823489029253,0.06594846397638321,-0.1647080779075623,-0.9841351509094238,0,0,0,-1,-1,2026-05-05T16:12:27.330+02:00,1853,1.428074,0,0,1618.589,0,0,2026-05-05T17:18:20.497+02:00,799687100.5986646,0,0.8699999,100.7547,0
2026-05-05T17:18:22.361+02:00,1777994302.000194,53.2356729079537,10.40149281733706,27.82473,0,0.8273451,-1,-1,7.999999999999999,5.429927758788004,-9999,3962.090645541667,0.094818115234375,-0.168243408203125,-0.9605560302734375,3962.085608541667,0.01184749290218249,-0.0008825965013044325,-0.003341659753979693,-0.1533290892839432,0.02785826101899147,0.01569307595491409,0.03040716052055359,0.0004822015762329102,0.01175403594970703,XArbitraryZVertical,-0.001668185422781751,-0.0004511873643775253,0.005924440000717835,0.9999810045900211,0.0661199688911438,-0.1633545160293579,-0.984349250793457,0,0,0,-1,-1,2026-05-05T16:12:27.330+02:00,1853,1.428074,0,0,1618.589,0,0,2026-05-05T17:18:20.497+02:00,799687100.5986646,0,0.8699999,100.7547,0
2026-05-05T17:18:22.372+02:00,1777994302.000194,53.2356729079537,10.40149281733706,27.82473,0,0.8273451,-1,-1,7.999999999999999,5.429927758788004,-9999,3962.100718541667,0.0959625244140625,-0.16741943359375,-0.9557952880859375,3962.095681541667,0.01200253763812599,-0.0005572724548965064,-0.005031552764853621,-0.1827977746725082,0.03692978620529175,0.0143660232424736,0.02672545611858368,-0.00699983537197113,0.02096408605575562,XArbitraryZVertical,-0.002514055939743669,-0.0002937280377319657,0.006001913988589631,0.9999788776217652,0.06641420722007751,-0.1617013365030289,-0.9846023917198181,0,0,0,-1,-1,2026-05-05T16:12:27.330+02:00,1853,1.428074,0,0,1618.589,0,0,2026-05-05T17:18:20.497+02:00,799687100.5986646,0,0.8699999,100.7547,0
2026-05-05T17:18:22.382+02:00,1777994302.000194,53.2356729079537,10.40149281733706,27.82473,0,0.8273451,-1,-1,7.999999999999999,5.429927758788004,-9999,3962.110791541667,0.09539794921875,-0.168212890625,-0.9469757080078125,3962.105754541667,0.01216303930386782,-9.54910340061397e-05,-0.007129300809456044,-0.2355431318283081,0.05533569306135178,0.0166747160255909,0.02948666363954544,-0.007025390863418579,0.02630585432052612,XArbitraryZVertical,-0.003564286236764613,-6.94226320618839e-05,0.006081613141853621,0.9999752460235802,0.06684209406375885,-0.1596463471651077,-0.9849086999893188,0,0,0,-1,-1,2026-05-05T16:12:27.330+02:00,1853,1.428074,0,0,1618.589,0,0,2026-05-05T17:18:20.497+02:00,799687100.5986646,0,0.8699999,100.7547,0
2026-05-05T17:18:22.392+02:00,1777994302.000194,53.2356729079537,10.40149281733706,27.82473,0,0.8273451,-1,-1,7.999999999999999,5.429927758788004,-9999,3962.120864541667,0.0954742431640625,-0.1682586669921875,-0.942230224609375,3962.115827541667,0.01237497369680154,0.0006425302306773215,-0.009859055630415227,-0.3042414784431458,0.09043508768081665,0.02570309862494469,0.02818450331687927,-0.01075322926044464,0.03329557180404663,XArbitraryZVertical,-0.004931400945125431,0.0002907539844022086,0.006185788127309854,0.9999686810825584,0.06753390282392502,-0.1569713801145554,-0.9852914214134216,0,0,0,-1,-1,2026-05-05T16:12:27.330+02:00,1853,1.428074,0,0,1618.589,0,0,2026-05-05T17:18:20.497+02:00,799687100.5986646,0,0.8699999,100.7547,0
2026-05-05T17:18:22.402+02:00,1777994302.000194,53.2356729079537,10.40149281733706,27.82473,0,0.8273451,-1,-1,7.999999999999999,5.429927758788004,-9999,3962.130937541667,0.1011810302734375,-0.1667938232421875,-0.9552154541015625,3962.125900541667,0.01268408607102223,0.001727234731698745,-0.01316866499971208,-0.3393056392669678,0.118187889456749,0.03024552017450333,0.02689177542924881,-0.0143759697675705,0.04330348968505859,XArbitraryZVertical,-0.006589626971220415,0.000821823644891815,0.00633617447055468,0.9999578801649144,0.06855197250843048,-0.153730109333992,-0.9857320785522461,0,0,0,-1,-1,2026-05-05T16:12:27.330+02:00,1853,1.428074,0,0,1618.589,0,0,2026-05-05T17:18:20.497+02:00,799687100.5986646,0,0.8699999,100.7547,0
2026-05-05T17:18:22.412+02:00,1777994302.000194,53.2356729079537,10.40149281733706,27.82473,0,0.8273451,-1,-1,7.999999999999999,5.429927758788004,-9999,3962.141010541667,0.1043243408203125,-0.151214599609375,-0.9669342041015625,3962.135973541667,0.01303117666066592,0.002798924243963912,-0.01643417524038342,-0.3015092611312866,0.09037037193775177,0.04224332794547081,0.02766190469264984,-0.01807641983032227,0.03881341218948364,XArbitraryZVertical,-0.008225930410835885,0.00134584655525885,0.006503816585804453,0.9999441366653936,0.06955186277627945,-0.1505331993103027,-0.9861553311347961,0,0,0,-1,-1,2026-05-05T16:12:27.330+02:00,1853,1.428074,0,0,1618.589,0,0,2026-05-05T17:18:20.497+02:00,799687100.5986646,0,0.8699999,100.7547,0
2026-05-05T17:18:22.422+02:00,1777994302.000194,53.2356729079537,10.40149281733706,27.82473,0,0.8273451,-1,-1,7.999999999999999,5.429927758788004,-9999,3962.151083541667,0.1030120849609375,-0.1280364990234375,-0.982330322265625,3962.146046541667,0.0134979327101365,0.003631910368432866,-0.01936134194131628,-0.2821750640869141,0.07946792989969254,0.04697330296039581,0.03360005468130112,-0.01521104574203491,0.02535271644592285,XArbitraryZVertical,-0.009692538299449157,0.001750494810857042,0.00673100864890904,0.9999288586441371,0.07029705494642258,-0.1476765125989914,-0.9865342974662781,0,0,0,-1,-1,2026-05-05T16:12:27.330+02:00,1853,1.428074,0,0,1618.589,0,0,2026-05-05T17:18:20.497+02:00,799687100.5986646,0,0.8699999,100.7547,0
2026-05-05T17:18:22.432+02:00,1777994302.000194,53.2356729079537,10.40149281733706,27.82473,0,0.8273451,-1,-1,7.999999999999999,5.429927758788004,-9999,3962.161156541667,0.1024169921875,-0.1434173583984375,-0.9929962158203125,3962.156119541667,0.01405718814272219,0.004522263507780212,-0.02206510557053237,-0.2507332563400269,0.09121992439031601,0.06372218579053879,0.03371346741914749,0.008997857570648193,0.01369321346282959,XArbitraryZVertical,-0.0110479194189127,0.002183395387927635,0.007003145380166566,0.9999120910520601,0.0710839182138443,-0.1450452208518982,-0.9868682622909546,0,0,0,-1,-1,2026-05-05T16:12:27.330+02:00,1853,1.428074,0,0,1618.589,0,0,2026-05-05T17:18:20.497+02:00,799687100.5986646,0,0.8699999,100.7547,0
2026-05-05T17:18:22.442+02:00,1777994302.000194,53.2356729079537,10.40149281733706,27.82473,0,0.8273451,-1,-1,7.999999999999999,5.429927758788004,-9999,3962.171229541667,0.1033935546875,-0.1245880126953125,-0.9998931884765625,3962.166192541667,0.01481019932589652,0.005341277301157164,-0.02428940721452161,-0.1849576532840729,0.0643552839756012,0.08330341428518295,0.03070980310440063,0.009216919541358948,-0.003072082996368408,XArbitraryZVertical,-0.01216380367500107,0.002580435963428044,0.007372027222597827,0.9998954958845577,0.07176825404167175,-0.1428991705179214,-0.9871317744255066,0,0,0,-1,-1,2026-05-05T16:12:27.330+02:00,1853,1.428074,0,0,1618.589,0,0,2026-05-05T17:18:20.497+02:00,799687100.5986646,0,0.8699999,100.7547,0
2026-05-05T17:18:22.452+02:00,1777994302.000194,53.2356729079537,10.40149281733706,27.82473,0,0.8273451,-1,-1,7.999999999999999,5.429927758788004,-9999,3962.181302541667,0.1039886474609375,-0.095367431640625,-1.019912719726562,3962.176265541667,0.01567594960948315,0.00588520808089711,-0.02573053539575701,-0.0981210321187973,0.04032531753182411,0.08197742700576782,0.03081966936588287,0.000740543007850647,-0.006932318210601807,XArbitraryZVertical,-0.01288752389817852,0.002841432518759912,0.00779935690797409,0.9998824906578889,0.07216192036867142,-0.1415333896875381,-0.9872998595237732,0,0,0,-1,-1,2026-05-05T16:12:27.330+02:00,1853,1.428074,0,0,1618.589,0,0,2026-05-05T17:18:20.497+02:00,799687100.5986646,0,0.8699999,100.7547,0
2026-05-05T17:18:22.462+02:00,1777994302.000194,53.2356729079537,10.40149281733706,27.82473,0,0.8273451,-1,-1,7.999999999999999,5.429927758788004,-9999,3962.191375541667,0.1024169921875,-0.0861663818359375,-1.0302734375,3962.186338541667,0.01631498252682286,0.006139131008993334,-0.02626442635148303,-0.01222082041203976,0.00948005449026823,0.0400426909327507,0.03149913251399994,0.03422163426876068,-0.0221322774887085,XArbitraryZVertical,-0.01315637374120981,0.002962072602394274,0.008116350945263012,0.9998761738295697,0.07230643182992935,-0.1410484164953232,-0.9873586893081665,0,0,0,-1,-1,2026-05-05T16:12:27.330+02:00,1853,1.428074,0,0,1618.589,0,0,2026-05-05T17:18:20.497+02:00,799687100.5986646,0,0.8699999,100.7547,0
2026-05-05T17:18:22.473+02:00,1777994302.000194,53.2356729079537,10.40149281733706,27.82473,0,0.8273451,-1,-1,7.999999999999999,5.429927758788004,-9999,3962.201448541667,0.10211181640625,-0.099456787109375,-1.02508544921875,3962.196411541667,0.01644758554450996,0.006193252718380708,-0.02620006449972784,0.01527232304215431,0.003585680155083537,-0.008493153378367424,0.03029296547174454,0.05246719717979431,-0.03989088535308838,XArbitraryZVertical,-0.0131246148209843,0.002988523764639191,0.0081823914211541,0.9998759592649438,0.07233767211437225,-0.1411207616329193,-0.9873460531234741,0,0,0,-1,-1,2026-05-05T16:12:27.330+02:00,1853,1.428074,0,0,1618.589,0,0,2026-05-05T17:18:20.497+02:00,799687100.5986646,0,0.8699999,100.7547,0
2026-05-05T17:18:22.482+02:00,1777994302.000194,53.2356729079537,10.40149281733706,27.82473,0,0.8273451,-1,-1,7.999999999999999,5.429927758788004,-9999,3962.211521541667,0.1006927490234375,-0.1165771484375,-1.013900756835938,3962.206484541667,0.01627550651941226,0.006230809949912875,-0.02606325593791888,0.00996197946369648,0.006056827493011951,-0.02377257309854031,0.03036459535360336,0.04955446720123291,-0.04215645790100098,XArbitraryZVertical,-0.01305611300077974,0.003008988488921,0.008096335928971247,0.999877560568967,0.07240337133407593,-0.1412445306777954,-0.987323522567749,0,0,0,-1,-1,2026-05-05T16:12:27.330+02:00,1853,1.428074,0,0,1618.589,0,0,2026-05-05T17:18:20.497+02:00,799687100.5986646,0,0.8699999,100.7547,0
2026-05-05T17:18:22.493+02:00,1777994302.000194,53.2356729079537,10.40149281733706,27.82473,0,0.8273451,-1,-1,7.999999999999999,5.429927758788004,-9999,3962.221594541667,0.10394287109375,-0.132568359375,-0.993988037109375,3962.216557541667,0.01600478586947956,0.006295545082249956,-0.02602080599504642,-0.003938389010727406,0.009050486609339714,-0.02769088372588158,0.02764628827571869,0.03401446342468262,-0.03318047523498535,XArbitraryZVertical,-0.01303474197605303,0.00304329031244692,0.007960639222810385,0.9998787411138566,0.0725124254822731,-0.1412684917449951,-0.9873120784759521,0,0,0,-1,-1,2026-05-05T16:12:27.330+02:00,1853,1.428074,0,0,1618.589,0,0,2026-05-05T17:18:20.497+02:00,799687100.5986646,0,0.8699999,100.7547,0
2026-05-05T17:18:22.503+02:00,1777994302.000194,53.2356729079537,10.40149281733706,27.82473,0,0.8273451,-1,-1,7.999999999999999,5.429927758788004,-9999,3962.231667541667,0.10955810546875,-0.1386871337890625,-0.978973388671875,3962.226630541667,0.01576060253630653,0.006450255967660203,-0.02623603105532321,-0.04031914100050926,0.02522279694676399,-0.02106327377259731,0.02948200702667236,0.01582610607147217,-0.01723182201385498,XArbitraryZVertical,-0.01314257569578084,0.00312137530422003,0.007837195697445813,0.9998780903843423,0.07270612567663193,-0.1410397291183472,-0.9873305559158325,0,0,0,-1,-1,2026-05-05T16:12:27.330+02:00,1853,1.428074,0,0,1618.589,0,0,2026-05-05T17:18:20.497+02:00,799687100.5986646,0,0.8699999,100.7547,0
2026-05-05T17:18:22.513+02:00,1777994302.000194,53.2356729079537,10.40149281733706,27.82473,0,0.8273451,-1,-1,7.999999999999999,5.429927758788004,-9999,3962.241740541667,0.109466552734375,-0.14093017578125,-0.9678955078125,3962.236704541667,0.0155942507929236,0.006758151681532491,-0.0268268465227697,-0.07176841050386429,0.03393959254026413,-0.01775216497480869,0.03288809955120087,0.00413830578327179,0.001245796680450439,XArbitraryZVertical,-0.01343888057059373,0.003274081249146146,0.007750977997627067,0.9998743337060338,0.07303843647241592,-0.1404450684785843,-0.9873908162117004,0,0,0,-1,-1,2026-05-05T16:12:27.330+02:00,1853,1.428074,0,0,1618.589,0,0,2026-05-05T17:18:20.497+02:00,799687100.5986646,0,0.8699999,100.7547,0
2026-05-05T17:18:22.523+02:00,1777994302.000194,53.2356729079537,10.40149281733706,27.82473,0,0.8273451,-1,-1,7.999999999999999,5.429927758788004,-9999,3962.251813541667,0.104736328125,-0.133819580078125,-0.9663848876953125,3962.246777541667,0.01543132555969897,0.007070529124209709,-0.0275197870013436,-0.05851023644208908,0.02399454824626446,-0.01442161574959755,0.03712942451238632,-0.0009973645210266113,0.0146251916885376,XArbitraryZVertical,-0.01378623680169062,0.003428655456801332,0.007666165308778369,0.9998697677728722,0.07337474822998047,-0.1397497057914734,-0.9874644875526428,0,0,0,-1,-1,2026-05-05T16:12:27.330+02:00,1853,1.428074,0,0,1618.589,0,0,2026-05-05T17:18:20.497+02:00,799687100.5986646,0,0.8699999,100.7547,0
2026-05-05T17:18:22.533+02:00,1777994302.000194,53.2356729079537,10.40149281733706,27.82473,0,0.8273451,-1,-1,7.999999999999999,5.429927758788004,-9999,3962.261886541667,0.1010284423828125,-0.114166259765625,-0.972076416015625,3962.256850541667,0.01540745465803389,0.007204656345336223,-0.02797802621665115,-0.03434897214174271,0.003649596124887466,0.007547598332166672,0.03290318697690964,1.314282417297363e-05,0.0217745304107666,XArbitraryZVertical,-0.01401579880549733,0.003494098650688795,0.00765245735118618,0.9998664211212107,0.07351163774728775,-0.139295369386673,-0.9875185489654541,0,0,0,-1,-1,2026-05-05T16:12:27.330+02:00,1853,1.428074,0,0,1618.589,0,0,2026-05-05T17:18:20.497+02:00,799687100.5986646,0,0.8699999,100.7547,0
2026-05-05T17:18:22.543+02:00,1777994302.000194,53.2356729079537,10.40149281733706,27.82473,0,0.8273451,-1,-1,7.999999999999999,5.429927758788004,-9999,3962.271959541667,0.096649169921875,-0.1130523681640625,-0.9731292724609375,3962.266923541667,0.01555524664516341,0.007211985651617448,-0.02825994906903703,-0.02110677771270275,-0.005621667020022869,0.02091653272509575,0.02942605316638947,0.01549148559570312,0.01755648851394653,XArbitraryZVertical,-0.01415702772345158,0.003495623770070523,0.007725768531769653,0.9998638491370688,0.07349449396133423,-0.1390266269445419,-0.9875576496124268,0,0,0,-1,-1,2026-05-05T16:12:27.330+02:00,1853,1.428074,0,0,1618.589,0,0,2026-05-05T17:18:20.497+02:00,799687100.5986646,0,0.8699999,100.7547,0
2026-05-05T17:18:22.553+02:00,1777994302.000194,53.2356729079537,10.40149281733706,27.82473,0,0.8273451,-1,-1,7.999999999999999,5.429927758788004,-9999,3962.282032541667,0.1001129150390625,-0.132049560546875,-0.9789276123046875,3962.276996541667,0.01579104166388247,0.007103239987535368,-0.02840555443717833,-0.01181793678551912,-0.01759417355060577,0.02526520937681198,0.02581900358200073,0.02993537485599518,0.0142437219619751,XArbitraryZVertical,-0.0142298061412453,0.003439010936543873,0.00784415317086975,0.9998620714911874,0.07334788888692856,-0.1388983875513077,-0.9875866174697876,0,0,0,-1,-1,2026-05-05T16:12:27.330+02:00,1853,1.428074,0,0,1618.589,0,0,2026-05-05T17:18:20.497+02:00,799687100.5986646,0,0.8699999,100.7547,0
2026-05-05T17:18:22.563+02:00,1777994302.000194,53.2356729079537,10.40149281733706,27.82473,0,0.8273451,-1,-1,7.999999999999999,5.429927758788004,-9999,3962.292105541667,0.1007232666015625,-0.1419525146484375,-0.9887237548828125,3962.287069541667,0.0161450021424727,0.006901382763825605,-0.02849871759289281,-0.0109598133713007,-0.02520948275923729,0.04067665711045265,0.02410895377397537,0.01584397256374359,0.01218211650848389,XArbitraryZVertical,-0.01427617988384531,0.003335199630774077,0.008022378973660359,0.9998603543068952,0.07308954745531082,-0.1388297975063324,-0.9876154065132141,0,0,0,-1,-1,2026-05-05T16:12:27.330+02:00,1853,1.428074,0,0,1618.589,0,0,2026-05-05T17:18:20.497+02:00,799687100.5986646,0,0.8699999,100.7547,0
2026-05-05T17:18:22.573+02:00,1777994302.000194,53.2356729079537,10.40149281733706,27.82473,0,0.8273451,-1,-1,7.999999999999999,5.429927758788004,-9999,3962.302178541667,0.099639892578125,-0.1542816162109375,-0.9971466064453125,3962.297142541667,0.01650161873970555,0.006754923335373809,-0.02868527788188765,-0.02871537394821644,-0.008007326163351536,0.02613366581499577,0.02853965014219284,0.001370474696159363,0.004117310047149658,XArbitraryZVertical,-0.01436944127361066,0.003258660709453567,0.008201382045152342,0.9998577751127098,0.07288554310798645,-0.1386690586805344,-0.9876530766487122,0,0,0,-1,-1,2026-05-05T16:12:27.330+02:00,1853,1.428074,0,0,1618.589,0,0,2026-05-05T17:18:20.497+02:00,799687100.5986646,0,0.8699999,100.7547,0
2026-05-05T17:18:22.583+02:00,1777994302.000194,53.2356729079537,10.40149281733706,27.82473,0,0.8273451,-1,-1,7.999999999999999,5.429927758788004,-9999,3962.312251541667,0.097503662109375,-0.1392974853515625,-0.9954986572265625,3962.307215541667,0.01668771350317713,0.006652802241402596,-0.02890260637656157,-0.01208063121885061,-0.01746261306107044,0.01066809054464102,0.02671823650598526,-0.00975722074508667,-0.006357908248901367,XArbitraryZVertical,-0.01447796749687407,0.003205358231990889,0.008294774316499788,0.9998557456514362,0.07275383919477463,-0.1384666562080383,-0.9876911640167236,0,0,0,-1,-1,2026-05-05T16:12:27.330+02:00,1853,1.428074,0,0,1618.589,0,0,2026-05-05T17:18:20.497+02:00,799687100.5986646,0,0.8699999,100.7547,0
2026-05-05T17:18:22.593+02:00,1777994302.000194,53.2356729079537,10.40149281733706,27.82473,0,0.8273451,-1,-1,7.999999999999999,5.429927758788004,-9999,3962.322324541667,0.09234619140625,-0.1211700439453125,-0.99359130859375,3962.317288541667,0.01675951521876773,0.006442847703404307,-0.02892338418844236,0.003510845359414816,-0.02261077053844929,0.004766525700688362,0.0273648276925087,-0.01213812828063965,-0.01023054122924805,XArbitraryZVertical,-0.01448759603192126,0.003099788972550231,0.008332155472517623,0.999855581255999,0.07253448665142059,-0.1384508609771729,-0.9877095222473145,0,0,0,-1,-1,2026-05-05T16:12:27.330+02:00,1853,1.428074,0,0,1618.589,0,0,2026-05-05T17:18:20.497+02:00,799687100.5986646,0,0.8699999,100.7547,0
2026-05-05T17:18:22.603+02:00,1777994302.000194,53.2356729079537,10.40149281733706,27.82473,0,0.8273451,-1,-1,7.999999999999999,5.429927758788004,-9999,3962.332397541667,0.09759521484375,-0.12713623046875,-0.9879608154296875,3962.327361541667,0.01676604764867302,0.006309261840368041,-0.02899318387285077,-0.01974467746913433,-0.005604888778179884,-0.003464572597295046,0.021791011095047,0.01025426387786865,-0.006228625774383545,XArbitraryZVertical,-0.01452194431319285,0.003032664277118595,0.008336274644602253,0.9998552430063837,0.07240151613950729,-0.1383823156356812,-0.9877288937568665,0,0,0,-1,-1,2026-05-05T16:12:27.330+02:00,1853,1.428074,0,0,1618.589,0,0,2026-05-05T17:18:20.497+02:00,799687100.5986646,0,0.8699999,100.7547,0
2026-05-05T17:18:22.613+02:00,1777994302.000194,53.2356729079537,10.40149281733706,27.82473,0,0.8273451,-1,-1,7.999999999999999,5.429927758788004,-9999,3962.342470541667,0.0980377197265625,-0.142791748046875,-0.9814300537109375,3962.337434541667,0.01666128691404471,0.006540112265636415,-0.02931657392860459,-0.0403468906879425,0.01267291884869337,-0.01370123028755188,0.02210979908704758,0.01752662658691406,-0.003576457500457764,XArbitraryZVertical,-0.0146844133174105,0.003147478995320765,0.008281677583628598,0.9998529350707274,0.07264730334281921,-0.1380558013916016,-0.9877565503120422,0,0,0,-1,-1,2026-05-05T16:12:27.330+02:00,1853,1.428074,0,0,1618.589,0,0,2026-05-05T17:18:20.497+02:00,799687100.5986646,0,0.8699999,100.7547,0
2026-05-05T17:18:22.623+02:00,1777994302.000194,53.2356729079537,10.40149281733706,27.82473,0,0.8273451,-1,-1,7.999999999999999,5.429927758788004,-9999,3962.352543541667,0.1081695556640625,-0.1390838623046875,-0.9823150634765625,3962.347507541667,0.01648373936168538,0.006776586059807802,-0.02959072847397156,0.0002024534624069929,0.001222657039761543,-0.01399664208292961,0.02474550157785416,0.001741006970405579,0.003248989582061768,XArbitraryZVertical,-0.01482215998931451,0.003265865802217083,0.008190699884005356,0.9998512298057021,0.07291077077388763,-0.1377731114625931,-0.9877765774726868,0,0,0,-1,-1,2026-05-05T16:12:27.330+02:00,1853,1.428074,0,0,1618.589,0,0,2026-05-05T17:18:20.497+02:00,799687100.5986646,0,0.8699999,100.7547,0
2026-05-05T17:18:22.634+02:00,1777994302.000194,53.2356729079537,10.40149281733706,27.82473,0,0.8273451,-1,-1,7.999999999999999,5.429927758788004,-9999,3962.362616541667,0.10986328125,-0.10882568359375,-0.988555908203125,3962.357580541667,0.01637863676795382,0.006932473888389103,-0.02960996990281126,0.03000322543084621,-0.006102100946009159,-0.0009791115298867226,0.02890743315219879,-0.007119759917259216,0.007985472679138184,XArbitraryZVertical,-0.01483224061196724,0.003344497530916092,0.008136965880650668,0.999851345275678,0.0730823278427124,-0.1377471685409546,-0.9877675175666809,0,0,0,-1,-1,2026-05-05T16:12:27.330+02:00,1853,1.428074,0,0,1618.589,0,0,2026-05-05T17:18:20.497+02:00,799687100.5986646,0,0.8699999,100.7547,0
2026-05-05T17:18:22.644+02:00,1777994302.000194,53.2356729079537,10.40149281733706,27.82473,0,0.8273451,-1,-1,7.999999999999999,5.429927758788004,-9999,3962.372689541667,0.0989837646484375,-0.0987091064453125,-0.9872894287109375,3962.367653541667,0.01628791411864152,0.007170226403935435,-0.02944717355539642,0.02593753859400749,4.660547710955143e-05,-0.008812533691525459,0.03804177045822144,0.01291732490062714,0.00129246711730957,XArbitraryZVertical,-0.01475166406642589,0.003464695933696893,0.008090149311975157,0.9998525467272298,0.07333216071128845,-0.1379020661115646,-0.9877274036407471,0,0,0,-1,-1,2026-05-05T16:12:27.330+02:00,1853,1.428074,0,0,1618.589,0,0,2026-05-05T17:18:20.497+02:00,799687100.5986646,0,0.8699999,100.7547,0
2026-05-05T17:18:22.654+02:00,1777994302.000194,53.2356729079537,10.40149281733706,27.82473,0,0.8273451,-1,-1,7.999999999999999,5.429927758788004,-9999,3962.382762541667,0.089202880859375,-0.1056976318359375,-0.9866485595703125,3962.377726541667,0.01611115270515373,0.007487927813209047,-0.02926522394006559,0.01352347806096077,0.001751827308908105,-0.01598149538040161,0.031793512403965,0.03920842707157135,-0.0003129243850708008,XArbitraryZVertical,-0.01466166878174948,0.003625565099718583,0.007999790350577095,0.9998539284201663,0.07367525994777679,-0.1380701214075089,-0.9876784086227417,0,0,0,-1,-1,2026-05-05T16:12:27.330+02:00,1853,1.428074,0,0,1618.589,0,0,2026-05-05T17:18:20.497+02:00,799687100.5986646,0,0.8699999,100.7547,0
2026-05-05T17:18:22.664+02:00,1777994302.000194,53.2356729079537,10.40149281733706,27.82473,0,0.8273451,-1,-1,7.999999999999999,5.429927758788004,-9999,3962.392835541667,0.09283447265625,-0.10784912109375,-0.980499267578125,3962.387799541667,0.01592693042322314,0.007765871248453892,-0.02909794607455249,0.0005856823408976197,0.003992610611021519,-0.01424025371670723,0.01841164380311966,0.03470760583877563,0.0002989768981933594,XArbitraryZVertical,-0.01457880652540835,0.003766537704482423,0.007905989301520191,0.999855387759062,0.07398034632205963,-0.1382232308387756,-0.9876341819763184,0,0,0,-1,-1,2026-05-05T16:12:27.330+02:00,1853,1.428074,0,0,1618.589,0,0,2026-05-05T17:18:20.497+02:00,799687100.5986646,0,0.8699999,100.7547,0
2026-05-05T17:18:22.674+02:00,1777994302.000194,53.2356729079537,10.40149281733706,27.82473,0,0.8273451,-1,-1,7.999999999999999,5.429927758788004,-9999,3962.402908541667,0.0952606201171875,-0.1144256591796875,-0.9780426025390625,3962.397872541667,0.01579862040975449,0.008064918125689128,-0.02912416130726594,-0.02322697266936302,0.00430393498390913,-0.006449443753808737,0.01626379787921906,0.03259800374507904,0.004445672035217285,XArbitraryZVertical,-0.01459284245766997,0.003916870426502097,0.007839609025904604,0.9998551606724418,0.07429713755846024,-0.138188824057579,-0.9876152276992798,0,0,0,-1,-1,2026-05-05T16:12:27.330+02:00,1853,1.428074,0,0,1618.589,0,0,2026-05-05T17:18:20.497+02:00,799687100.5986646,0,0.8699999,100.7547,0
2026-05-05T17:18:22.684+02:00,1777994302.000194,53.2356729079537,10.40149281733706,27.82473,0,0.8273451,-1,-1,7.999999999999999,5.429927758788004,-9999,3962.412981541667,0.100433349609375,-0.1178131103515625,-0.9741363525390625,3962.407945541667,0.01576256127518931,0.008346811138358105,-0.02959497850307154,-0.0441947840154171,0.01304283086210489,0.002952313516288996,0.02017500251531601,0.02654562890529633,0.009387552738189697,XArbitraryZVertical,-0.01482924769743573,0.004056190037843435,0.007818515556549575,0.9998513032229988,0.07458209991455078,-0.1377211660146713,-0.9876590371131897,0,0,0,-1,-1,2026-05-05T16:12:27.330+02:00,1853,1.428074,0,0,1618.589,0,0,2026-05-05T17:18:20.497+02:00,799687100.5986646,0,0.8699999,100.7547,0
2026-05-05T17:18:22.694+02:00,1777994302.000194,53.2356729079537,10.40149281733706,27.82473,0,0.8273451,-1,-1,7.999999999999999,5.429927758788004,-9999,3962.423055541667,0.105926513671875,-0.11724853515625,-0.9720916748046875,3962.418018541667,0.01563169762505245,0.008680705634276349,-0.0303192485837366,-0.06207498162984848,0.005340170115232468,-0.02782583981752396,0.02171462774276733,0.02081628143787384,0.01127743721008301,XArbitraryZVertical,-0.01519235625403532,0.0042212292311678,0.007749003780030044,0.9998457031846468,0.07493457198143005,-0.1369967013597488,-0.9877331256866455,0,0,0,-1,-1,2026-05-05T16:12:27.330+02:00,1853,1.428074,0,0,1618.589,0,0,2026-05-05T17:18:20.497+02:00,799687100.5986646,0,0.8699999,100.7547,0
2026-05-05T17:18:22.704+02:00,1777994302.000194,53.2356729079537,10.40149281733706,27.82473,0,0.8273451,-1,-1,7.999999999999999,5.429927758788004,-9999,3962.433128541667,0.0973358154296875,-0.111846923828125,-0.9726409912109375,3962.428091541667,0.01523134310907397,0.008828286916115686,-0.0309262320664715,-0.0569230429828167,-0.01597657054662704,-0.03740083426237106,0.0300920158624649,0.01874019205570221,0.01496428251266479,XArbitraryZVertical,-0.01549551224895302,0.004295718187884391,0.007546361450703284,0.9998422795970817,0.07514787465333939,-0.1363701969385147,-0.98780357837677,0,0,0,-1,-1,2026-05-05T16:12:27.330+02:00,1853,1.428074,0,0,1618.589,0,0,2026-05-05T17:18:20.497+02:00,799687100.5986646,0,0.8699999,100.7547,0
2026-05-05T17:18:22.714+02:00,1777994302.000194,53.2356729079537,10.40149281733706,27.82473,0,0.8273451,-1,-1,7.999999999999999,5.429927758788004,-9999,3962.443201541667,0.0880584716796875,-0.1055755615234375,-0.9737548828125,3962.438164541667,0.0150507286078081,0.008900579210760569,-0.03125618706792057,-0.02843334525823593,-0.02324247173964977,0.01114779245108366,0.02858626842498779,0.02040094137191772,0.01474374532699585,XArbitraryZVertical,-0.01566034565081168,0.004332005428598925,0.007454755284039138,0.9998401954480722,0.0752498134970665,-0.1360320448875427,-0.9878425002098083,0,0,0,-1,-1,2026-05-05T16:12:27.330+02:00,1853,1.428074,0,0,1618.589,0,0,2026-05-05T17:18:20.497+02:00,799687100.5986646,0,0.8699999,100.7547,0
2026-05-05T17:18:22.725+02:00,1777994302.000194,53.2356729079537,10.40149281733706,27.82473,0,0.8273451,-1,-1,7.999999999999999,5.429927758788004,-9999,3962.453274541667,0.11236572265625,-0.111785888671875,-0.978302001953125,3962.448237541667,0.0153007705971967,0.009144376701197832,-0.03160236039524712,-0.024522440508008,0.000376837095245719,0.04276610538363457,0.01329576969146729,0.02662140130996704,0.01484960317611694,XArbitraryZVertical,-0.01583486834163233,0.004450589964987984,0.007577034630176211,0.9998360662712127,0.07544936239719391,-0.1357064694166183,-0.9878720045089722,0,0,0,-1,-1,2026-05-05T16:12:27.330+02:00,1853,1.428074,0,0,1618.589,0,0,2026-05-05T17:18:20.497+02:00,799687100.5986646,0,0.8699999,100.7547,0
2026-05-05T17:18:22.742+02:00,1777994302.000194,53.2356729079537,10.40149281733706,27.82473,0,0.8273451,-1,-1,7.999999999999999,5.429927758788004,-9999,3962.463347541667,0.1265716552734375,-0.12567138671875,-0.9891510009765625,3962.458310541667,0.01555177051807329,0.009512214448474511,-0.03227932975532399,-0.04094775393605232,0.009966880083084106,0.01459998171776533,0.02168619632720947,0.02927994728088379,0.01207619905471802,XArbitraryZVertical,-0.01617527163805773,0.004629834111089907,0.007697950326402235,0.9998288014856147,0.07577171921730042,-0.1350538730621338,-0.987936794757843,0,0,0,-1,-1,2026-05-05T16:12:27.330+02:00,1853,1.428074,0,0,1618.589,0,0,2026-05-05T17:18:20.497+02:00,799687100.5986646,0,0.8699999,100.7547,0
2026-05-05T17:18:22.744+02:00,1777994302.000194,53.2356729079537,10.40149281733706,27.82473,0,0.8273451,-1,-1,7.999999999999999,5.429927758788004,-9999,3962.473420541667,0.105926513671875,-0.11102294921875,-1.000656127929688,3962.468383541667,0.01554228020268524,0.009759406460459872,-0.03298292201952507,-0.03093565255403519,0.006364156492054462,-0.007609051186591387,0.04780665040016174,0.01355382800102234,0.004843235015869141,XArbitraryZVertical,-0.01652793327189034,0.004750723863912619,0.007689445111285411,0.9998226171429727,0.07601844519376755,-0.1343576610088348,-0.9880127906799316,0,0,0,-1,-1,2026-05-05T16:12:27.330+02:00,1853,1.428074,0,0,1618.589,0,0,2026-05-05T17:18:20.497+02:00,799687100.5986646,0,0.8699999,100.7547,0
2026-05-05T17:18:22.754+02:00,1777994302.000194,53.2356729079537,10.40149281733706,27.82473,0,0.8273451,-1,-1,7.999999999999999,5.429927758788004,-9999,3962.483493541667,0.095428466796875,-0.1014862060546875,-1.000503540039062,3962.478456541667,0.01539860443602021,0.009867009552564768,-0.03345210685148461,-0.01162240840494633,-0.006396113894879818,-0.01247304864227772,0.04190792143344879,0.01343134045600891,-0.008118331432342529,XArbitraryZVertical,-0.01676255163943537,0.004803878014261739,0.007615543484922651,0.999819035466627,0.0761493518948555,-0.1338842213153839,-0.9880669713020325,0,0,0,-1,-1,2026-05-05T16:12:27.330+02:00,1853,1.428074,0,0,1618.589,0,0,2026-05-05T17:18:20.497+02:00,799687100.5986646,0,0.8699999,100.7547,0
2026-05-05T17:18:22.764+02:00,1777994302.000194,53.2356729079537,10.40149281733706,27.82473,0,0.8273451,-1,-1,7.999999999999999,5.429927758788004,-9999,3962.493566541667,0.1031951904296875,-0.10565185546875,-0.989532470703125,3962.488529541667,0.01521497870655297,0.01003327056341398,-0.03368163686499306,0.005358599592000246,0.001405083807185292,-0.01450550556182861,0.0202283188700676,0.02857306599617004,-0.01357895135879517,XArbitraryZVertical,-0.01687747984552103,0.004887649892620177,0.007521763438706582,0.9998174092699103,0.0763445720076561,-0.133645087480545,-0.9880842566490173,0,0,0,-1,-1,2026-05-05T16:12:27.330+02:00,1853,1.428074,0,0,1618.589,0,0,2026-05-05T17:18:20.497+02:00,799687100.5986646,0,0.8699999,100.7547,0
2026-05-05T17:18:22.775+02:00,1777994302.000194,53.2356729079537,10.40149281733706,27.82473,0,0.8273451,-1,-1,7.999999999999999,5.429927758788004,-9999,3962.503639541667,0.0998077392578125,-0.118804931640625,-0.9764556884765625,3962.498602541667,0.01499955882839226,0.01026312106075729,-0.03376490167332448,0.004715979099273682,0.00333081535063684,-0.02103823982179165,0.02304744720458984,0.03189437091350555,-0.008428752422332764,XArbitraryZVertical,-0.01691943086979381,0.005004056503299854,0.007411915013441783,0.9998168929312113,0.07660772651433945,-0.1335484236478806,-0.9880769848823547,0,0,0,-1,-1,2026-05-05T16:12:27.330+02:00,1853,1.428074,0,0,1618.589,0,0,2026-05-05T17:18:20.497+02:00,799687100.5986646,0,0.8699999,100.7547,0
2026-05-05T17:18:22.785+02:00,1777994302.000194,53.2356729079537,10.40149281733706,27.82473,0,0.8273451,-1,-1,7.999999999999999,5.429927758788004,-9999,3962.513712541667,0.0972137451171875,-0.1303253173828125,-0.9696502685546875,3962.508675541667,0.01472979794080217,0.01058067823293812,-0.03395457883859263,-0.0167696587741375,0.006493585184216499,-0.02406765148043633,0.02502299845218658,0.02071784436702728,0.00637209415435791,XArbitraryZVertical,-0.01701473119935321,0.005164381063701488,0.007273858975127051,0.9998155224101353,0.07696676999330521,-0.1333429664373398,-0.9880768060684204,0,0,0,-1,-1,2026-05-05T16:12:27.330+02:00,1853,1.428074,0,0,1618.589,0,0,2026-05-05T17:18:20.497+02:00,799687100.5986646,0,0.8699999,100.7547,0
2026-05-05T17:18:22.795+02:00,1777994302.000194,53.2356729079537,10.40149281733706,27.82473,0,0.8273451,-1,-1,7.999999999999999,5.429927758788004,-9999,3962.523785541667,0.092681884765625,-0.133087158203125,-0.9655914306640625,3962.518748541667,0.01446742064302211,0.01091958548323757,-0.03442301621744691,-0.04633979871869087,0.006470948457717896,-0.01971578039228916,0.02061536908149719,0.008167475461959839,0.01452493667602539,XArbitraryZVertical,-0.01724943851831863,0.005334319796212156,0.007138503847822465,0.9998115731036692,0.077346071600914,-0.1328622996807098,-0.9881119132041931,0,0,0,-1,-1,2026-05-05T16:12:27.330+02:00,1853,1.428074,0,0,1618.589,0,0,2026-05-05T17:18:20.497+02:00,799687100.5986646,0,0.8699999,100.7547,0
2026-05-05T17:18:22.805+02:00,1777994302.000194,53.2356729079537,10.40149281733706,27.82473,0,0.8273451,-1,-1,7.999999999999999,5.429927758788004,-9999,3962.533858541667,0.0930633544921875,-0.1263275146484375,-0.9697265625,3962.528821541667,0.0142477250629191,0.01107353728282492,-0.03515897144791479,-0.05850107222795486,0.003728425363078713,-0.01988868601620197,0.01668712496757507,-0.001455575227737427,0.02220845222473145,XArbitraryZVertical,-0.01761729975649977,0.005410519496737055,0.007025266186061837,0.9998055722382474,0.07753591984510422,-0.1321198642253876,-0.9881966114044189,0,0,0,-1,-1,2026-05-05T16:12:27.330+02:00,1853,1.428074,0,0,1618.589,0,0,2026-05-05T17:18:20.497+02:00,799687100.5986646,0,0.8699999,100.7547,0
2026-05-05T17:18:22.815+02:00,1777994302.000194,53.2356729079537,10.40149281733706,27.82473,0,0.8273451,-1,-1,7.999999999999999,5.429927758788004,-9999,3962.543931541667,0.0906829833984375,-0.11639404296875,-0.973358154296875,3962.538894541667,0.01405324069054963,0.01118689498182824,-0.03597378270935641,-0.05753248184919357,-0.01538188569247723,-0.01511843316257,0.01559543609619141,0.001982778310775757,0.02134484052658081,XArbitraryZVertical,-0.01802449100507926,0.005465997883354474,0.006924715237115151,0.9997986943245738,0.07768156379461288,-0.1313010305166245,-0.9882943034172058,0,0,0,-1,-1,2026-05-05T16:12:27.330+02:00,1853,1.428074,0,0,1618.589,0,0,2026-05-05T17:18:20.497+02:00,799687100.5986646,0,0.8699999,100.7547,0
2026-05-05T17:18:22.825+02:00,1777994302.000194,53.2356729079537,10.40149281733706,27.82473,0,0.8273451,-1,-1,7.999999999999999,5.429927758788004,-9999,3962.554004541667,0.088775634765625,-0.1141510009765625,-0.9807281494140625,3962.548967541667,0.01383033225127789,0.01135810246451059,-0.03651469757782871,-0.02973461896181107,-0.02651842683553696,-0.01786648109555244,0.01464057713747025,0.009230136871337891,0.01723581552505493,XArbitraryZVertical,-0.01829486784774941,0.005551695847632144,0.006810171315158675,0.9997940435433598,0.07788873463869095,-0.1307511180639267,-0.9883508682250977,0,0,0,-1,-1,2026-05-05T16:12:27.330+02:00,1853,1.428074,0,0,1618.589,0,0,2026-05-05T17:18:20.497+02:00,799687100.5986646,0,0.8699999,100.7547,0
2026-05-05T17:18:22.835+02:00,1777994302.000194,53.2356729079537,10.40149281733706,27.82473,0,0.8273451,-1,-1,7.999999999999999,5.429927758788004,-9999,3962.564077541667,0.093353271484375,-0.1121368408203125,-0.9858856201171875,3962.559040541667,0.01361388236296988,0.01130132255968009,-0.03671171767606816,0.008846594952046871,-0.04269153997302055,-0.01234894525259733,0.01157806068658829,0.01790140569210052,0.01215332746505737,XArbitraryZVertical,-0.01839256733465562,0.005524611345097848,0.006701919564019893,0.9997930738378662,0.0778689906001091,-0.1305417865514755,-0.9883801341056824,0,0,0,-1,-1,2026-05-05T16:12:27.330+02:00,1853,1.428074,0,0,1618.589,0,0,2026-05-05T17:18:20.497+02:00,799687100.5986646,0,0.8699999,100.7547,0
2026-05-05T17:18:22.845+02:00,1777994302.000194,53.2356729079537,10.40149281733706,27.82473,0,0.8273451,-1,-1,7.999999999999999,5.429927758788004,-9999,3962.574150541667,0.0922698974609375,-0.102081298828125,-0.9849090576171875,3962.569113541667,0.01348537941232362,0.01100511896230874,-0.03678061501668362,0.02012636139988899,-0.04568786174058914,-0.007602259982377291,0.01262747496366501,0.01445254683494568,0.003960311412811279,XArbitraryZVertical,-0.01842566791358791,0.005377485332934554,0.006640210488442267,0.9997938238418941,0.07759776711463928,-0.1304651200771332,-0.9884116053581238,0,0,0,-1,-1,2026-05-05T16:12:27.330+02:00,1853,1.428074,0,0,1618.589,0,0,2026-05-05T17:18:20.497+02:00,799687100.5986646,0,0.8699999,100.7547,0
2026-05-05T17:18:22.855+02:00,1777994302.000194,53.2356729079537,10.40149281733706,27.82473,0,0.8273451,-1,-1,7.999999999999999,5.429927758788004,-9999,3962.584223541667,0.091217041015625,-0.1156768798828125,-0.9884185791015625,3962.579186541667,0.01336434183395415,0.01074868028847752,-0.03692076445357466,0.000818442611489445,-0.0356256403028965,-0.01097781583666801,0.01698044687509537,0.02576518058776855,0.003387570381164551,XArbitraryZVertical,-0.01849455910704672,0.005249932424431224,0.006581681541841606,0.9997936023205375,0.07736466825008392,-0.1303184032440186,-0.9884492158889771,0,0,0,-1,-1,2026-05-05T16:12:27.330+02:00,1853,1.428074,0,0,1618.589,0,0,2026-05-05T17:18:20.497+02:00,799687100.5986646,0,0.8699999,100.7547,0
2026-05-05T17:18:22.865+02:00,1777994302.000194,53.2356729079537,10.40149281733706,27.82473,0,0.8273451,-1,-1,7.999999999999999,5.429927758788004,-9999,3962.594296541667,0.0938262939453125,-0.123016357421875,-0.99609375,3962.589259541667,0.01315814098436348,0.01066268701307854,-0.03721767753514493,-0.02982404828071594,-0.02226935140788555,-0.0228792168200016,0.01391788572072983,0.02322989702224731,0.002379119396209717,XArbitraryZVertical,-0.01864216657022419,0.005207860694558665,0.006478588740288584,0.9997916583309187,0.07731444388628006,-0.1300109028816223,-0.9884936213493347,0,0,0,-1,-1,2026-05-05T16:12:27.330+02:00,1853,1.428074,0,0,1618.589,0,0,2026-05-05T17:18:20.497+02:00,799687100.5986646,0,0.8699999,100.7547,0
2026-05-05T17:18:22.875+02:00,1777994302.000194,53.2356729079537,10.40149281733706,27.82473,0,0.8273451,-1,-1,7.999999999999999,5.429927758788004,-9999,3962.604369541667,0.0910797119140625,-0.123016357421875,-1.000411987304688,3962.599333541667,0.01284266831120634,0.01069649499987127,-0.03768068476716473,-0.05356905981898308,-0.007956726476550102,-0.03389937430620193,0.0150214284658432,0.007827684283256531,-0.002890050411224365,XArbitraryZVertical,-0.01887290673246256,0.005226192269589695,0.006319304416122528,0.9997882418247601,0.07740108668804169,-0.1295317858457565,-0.9885497093200684,0,0,0,-1,-1,2026-05-05T16:12:27.330+02:00,1853,1.428074,0,0,1618.589,0,0,2026-05-05T17:18:20.497+02:00,799687100.5986646,0,0.8699999,100.7547,0
2026-05-05T17:18:22.886+02:00,1777994302.000194,53.2356729079537,10.40149281733706,27.82473,0,0.8273451,-1,-1,7.999999999999999,5.429927758788004,-9999,3962.614442541667,0.093109130859375,-0.1277008056640625,-0.9948577880859375,3962.609406541667,0.01248745722425301,0.01075830093889793,-0.03813104284308002,-0.03900934383273125,-0.01464791875332594,-0.03621133416891098,0.01519041508436203,0.006366565823554993,-0.01124578714370728,XArbitraryZVertical,-0.01909729890642835,0.0052590119675855,0.006139915526200354,0.9997849226602116,0.07752200961112976,-0.1290625035762787,-0.9886016249656677,0,0,0,-1,-1,2026-05-05T16:12:27.330+02:00,1853,1.428074,0,0,1618.589,0,0,2026-05-05T17:18:20.497+02:00,799687100.5986646,0,0.8699999,100.7547,0
2026-05-05T17:18:22.895+02:00,1777994302.000194,53.2356729079537,10.40149281733706,27.82473,0,0.8273451,-1,-1,7.999999999999999,5.429927758788004,-9999,3962.624515541667,0.0981597900390625,-0.11981201171875,-0.989227294921875,3962.619479541667,0.01214534391302066,0.01074873169355817,-0.03833271106744791,0.002011858392506838,-0.02601056173443794,-0.02929430641233921,0.01407447457313538,0.003275513648986816,-0.00905376672744751,XArbitraryZVertical,-0.01919718286600476,0.005256872464646902,0.005968433442872061,0.9997840556037118,0.07756983488798141,-0.1288400888442993,-0.9886268973350525,0,0,0,-1,-1,2026-05-05T16:12:27.330+02:00,1853,1.428074,0,0,1618.589,0,0,2026-05-05T17:18:20.497+02:00,799687100.5986646,0,0.8699999,100.7547,0
2026-05-05T17:18:22.906+02:00,1777994302.000194,53.2356729079537,10.40149281733706,27.82473,0,0.8273451,-1,-1,7.999999999999999,5.429927758788004,-9999,3962.634588541667,0.0943145751953125,-0.1114349365234375,-0.9834136962890625,3962.629552541667,0.01178804630629518,0.01054681053870799,-0.03822637257546535,0.02949679829180241,-0.04097992554306984,-0.0398629903793335,0.01963157951831818,0.002944841980934143,-0.003361821174621582,XArbitraryZVertical,-0.01914250013381879,0.005159681489677448,0.005792047228177047,0.9997866912860387,0.07742960005998611,-0.1289214044809341,-0.9886273145675659,0,0,0,-1,-1,2026-05-05T16:12:27.330+02:00,1853,1.428074,0,0,1618.589,0,0,2026-05-05T17:18:20.497+02:00,799687100.5986646,0,0.8699999,100.7547,0
2026-05-05T17:18:22.924+02:00,1777994302.000194,53.2356729079537,10.40149281733706,27.82473,0,0.8273451,-1,-1,7.999999999999999,5.429927758788004,-9999,3962.644661541667,0.0889892578125,-0.1157379150390625,-0.9816436767578125,3962.639625541667,0.01131207360460901,0.01023092010895922,-0.03807882659917422,0.0238231997936964,-0.0434044674038887,-0.04725699126720428,0.02023099362850189,0.01547959446907043,0.00242459774017334,XArbitraryZVertical,-0.01906663622713155,0.005006749436847108,0.005557519797225782,0.9997902793682344,0.077196404337883,-0.1290355175733566,-0.9886306524276733,0,0,0,-1,-1,2026-05-05T16:12:27.330+02:00,1853,1.428074,0,0,1618.589,0,0,2026-05-05T17:18:20.497+02:00,799687100.5986646,0,0.8699999,100.7547,0
2026-05-05T17:18:22.926+02:00,1777994302.000194,53.2356729079537,10.40149281733706,27.82473,0,0.8273451,-1,-1,7.999999999999999,5.429927758788004,-9999,3962.654734541667,0.0879364013671875,-0.1228179931640625,-0.980560302734375,3962.649698541667,0.01075786595063342,0.009902092079888698,-0.03801997473273025,0.0110576581209898,-0.04134610667824745,-0.05607119202613831,0.01390257477760315,0.01630936563014984,0.006788790225982666,XArbitraryZVertical,-0.01903496115671419,0.004847814185798697,0.005283757440448926,0.9997930825088107,0.07696352899074554,-0.1290565431118011,-0.9886460304260254,0,0,0,-1,-1,2026-05-05T16:12:27.330+02:00,1853,1.428074,0,0,1618.589,0,0,2026-05-05T17:18:20.497+02:00,799687100.5986646,0,0.8699999,100.7547,0
2026-05-05T17:18:22.936+02:00,1777994302.000194,53.2356729079537,10.40149281733706,27.82473,0,0.8273451,-1,-1,7.999999999999999,5.429927758788004,-9999,3962.664807541667,0.091827392578125,-0.1294403076171875,-0.980804443359375,3962.659771541667,0.01021731091294366,0.009657628755538628,-0.03818062612998203,-0.001457601319998503,-0.03173236548900604,-0.04263794049620628,0.01086496561765671,0.008957743644714355,0.00761944055557251,XArbitraryZVertical,-0.01911334560286141,0.004730334307578555,0.005015466315542112,0.9997935709084623,0.07681205868721008,-0.1288613080978394,-0.98868328332901,0,0,0,-1,-1,2026-05-05T16:12:27.330+02:00,1853,1.428074,0,0,1618.589,0,0,2026-05-05T17:18:20.497+02:00,799687100.5986646,0,0.8699999,100.7547,0
2026-05-05T17:18:22.946+02:00,1777994302.000194,53.2356729079537,10.40149281733706,27.82473,0,0.8273451,-1,-1,7.999999999999999,5.429927758788004,-9999,3962.674880541667,0.1011199951171875,-0.13079833984375,-0.98974609375,3962.669844541667,0.00982838855895468,0.009348519201072604,-0.0381881980527695,0.001008379273116589,-0.02479003369808197,-0.03825883939862251,0.01249436289072037,0.002118676900863647,0.008954823017120361,XArbitraryZVertical,-0.01911546566324234,0.004579509114621501,0.004823981113901195,0.9997951514103735,0.07657119631767273,-0.1288276463747025,-0.9887063503265381,0,0,0,-1,-1,2026-05-05T16:12:27.330+02:00,1853,1.428074,0,0,1618.589,0,0,2026-05-05T17:18:20.497+02:00,799687100.5986646,0,0.8699999,100.7547,0
2026-05-05T17:18:22.956+02:00,1777994302.000194,53.2356729079537,10.40149281733706,27.82473,0,0.8273451,-1,-1,7.999999999999999,5.429927758788004,-9999,3962.684953125,0.1082916259765625,-0.126068115234375,-0.9976959228515625,3962.679917125,0.009459149542631618,0.009051448481088334,-0.0381352348760618,0.005008713342249393,-0.02521534077823162,-0.03769265115261078,0.02011194825172424,-0.001531153917312622,0.00457465648651123,XArbitraryZVertical,-0.0190874545297028,0.004434660557817396,0.004642360742505635,0.9997971902467182,0.07633887976408005,-0.1288551986217499,-0.9887207746505737,0,0,0,-1,-1,2026-05-05T16:12:27.330+02:00,1853,1.428074,0,0,1618.589,0,0,2026-05-05T17:18:20.497+02:00,799687100.5986646,0,0.8699999,100.7547,0
2026-05-05T17:18:22.966+02:00,1777994302.000194,53.2356729079537,10.40149281733706,27.82473,0,0.8273451,-1,-1,7.999999999999999,5.429927758788004,-9999,3962.695026125,0.1060638427734375,-0.11468505859375,-0.99639892578125,3962.689990125,0.009020785900819298,0.008783533012279148,-0.03808346318533155,0.004531315062195063,-0.01972896419465542,-0.04628879949450493,0.02874203026294708,-0.001051664352416992,-0.005774080753326416,XArbitraryZVertical,-0.01906000710549152,0.004305031873390813,0.004425895519243305,0.9997993484025318,0.07614690065383911,-0.1288769096136093,-0.9887326955795288,0,0,0,-1,-1,2026-05-05T16:12:27.330+02:00,1853,1.428074,0,0,1618.589,0,0,2026-05-05T17:18:20.497+02:00,799687100.5986646,0,0.8699999,100.7547,0
2026-05-05T17:18:22.976+02:00,1777994302.000194,53.2356729079537,10.40149281733706,27.82473,0,0.8273451,-1,-1,7.999999999999999,5.429927758788004,-9999,3962.705099125,0.103668212890625,-0.113922119140625,-0.9898681640625,3962.700063125,0.008550300078669533,0.008566037878306764,-0.03796660562189052,0.01493868231773376,-0.01580958813428879,-0.047418512403965,0.03244947642087936,0.009301364421844482,-0.009726524353027344,XArbitraryZVertical,-0.01900012070356128,0.004201044081972118,0.004193027231887474,0.9998019437014718,0.07601001858711243,-0.1289607882499695,-0.9887323379516602,0,0,0,-1,-1,2026-05-05T16:12:27.330+02:00,1853,1.428074,0,0,1618.589,0,0,2026-05-05T17:18:20.497+02:00,799687100.5986646,0,0.8699999,100.7547,0
2026-05-05T17:18:22.986+02:00,1777994302.000194,53.2356729079537,10.40149281733706,27.82473,0,0.8273451,-1,-1,7.999999999999999,5.429927758788004,-9999,3962.715172125,0.1023406982421875,-0.111083984375,-0.985443115234375,3962.710136125,0.008053444394591101,0.008367759217486189,-0.03772124027383563,0.03082401305437088,-0.0145887965336442,-0.04942260682582855,0.02800074219703674,0.0158277153968811,-0.004526615142822266,XArbitraryZVertical,-0.01887602626510544,0.004107147845541978,0.003947054492924898,0.9998057088714911,0.07589637488126755,-0.1291700005531311,-0.9887137413024902,0,0,0,-1,-1,2026-05-05T16:12:27.330+02:00,1853,1.428074,0,0,1618.589,0,0,2026-05-05T17:18:20.497+02:00,799687100.5986646,0,0.8699999,100.7547,0
2026-05-05T17:18:22.996+02:00,1777994302.000194,53.2356729079537,10.40149281733706,27.82473,0,0.8273451,-1,-1,7.999999999999999,5.429927758788004,-9999,3962.725245125,0.10455322265625,-0.1147613525390625,-0.97998046875,3962.720209125,0.007556358613159037,0.008182552580984315,-0.0373808857612993,0.03079258650541306,-0.01632038317620754,-0.04568859189748764,0.02657564729452133,0.01771773397922516,0.0003853440284729004,XArbitraryZVertical,-0.01870451743451672,0.004019909654380933,0.003701015820827004,0.9998102443128903,0.07579559087753296,-0.1294731050729752,-0.9886818528175354,0,0,0,-1,-1,2026-05-05T16:12:27.330+02:00,1853,1.428074,0,0,1618.589,0,0,2026-05-05T17:18:20.497+02:00,799687100.5986646,0,0.8699999,100.7547,0
2026-05-05T17:18:23.006+02:00,1777994302.000194,53.2356729079537,10.40149281733706,27.82473,0,0.8273451,-1,-1,7.999999999999999,5.429927758788004,-9999,3962.735319125,0.103179931640625,-0.1209869384765625,-0.9787445068359375,3962.730282125,0.00705902259183265,0.007979149253619479,-0.03721030810677395,0.003086443757638335,-0.01414378266781569,-0.05242133140563965,0.02724354714155197,0.017303466796875,0.006098806858062744,XArbitraryZVertical,-0.01861789578216341,0.003923186121037648,0.003454643367891972,0.9998129920880801,0.07567699998617172,-0.1296081393957138,-0.988673210144043,0,0,0,-1,-1,2026-05-05T16:12:27.330+02:00,1853,1.428074,0,0,1618.589,0,0,2026-05-05T17:18:20.497+02:00,799687100.5986646,0,0.8699999,100.7547,0
2026-05-05T17:18:23.016+02:00,1777994302.000194,53.2356729079537,10.40149281733706,27.82473,0,0.8273451,-1,-1,7.999999999999999,5.429927758788004,-9999,3962.745392125,0.09918212890625,-0.129302978515625,-0.9820098876953125,3962.740355125,0.006545153692779875,0.0077782785325804,-0.03722107724586697,-0.004442312754690647,-0.02190157026052475,-0.04656637087464333,0.02909618616104126,0.01264981925487518,0.01038581132888794,XArbitraryZVertical,-0.01862194859538618,0.003827534701924895,0.003199605217377421,0.9998141829900229,0.07556387037038803,-0.1295626610517502,-0.9886878132820129,0,0,0,-1,-1,2026-05-05T16:12:27.330+02:00,1853,1.428074,0,0,1618.589,0,0,2026-05-05T17:18:20.497+02:00,799687100.5986646,0,0.8699999,100.7547,0
2026-05-05T17:18:23.026+02:00,1777994302.000194,53.2356729079537,10.40149281733706,27.82473,0,0.8273451,-1,-1,7.999999999999999,5.429927758788004,-9999,3962.755465125,0.097320556640625,-0.1129302978515625,-0.9830474853515625,3962.750428125,0.006108212025330812,0.007462694993495889,-0.03724329083782611,-0.0006848585326224566,-0.03105086088180542,-0.03975027427077293,0.02492575347423553,0.002832561731338501,0.008518815040588379,XArbitraryZVertical,-0.01863174710772107,0.00367380588580885,0.002984071233858834,0.9998151869434865,0.07532450556755066,-0.1295110136270523,-0.9887128472328186,0,0,0,-1,-1,2026-05-05T16:12:27.330+02:00,1853,1.428074,0,0,1618.589,0,0,2026-05-05T17:18:20.497+02:00,799687100.5986646,0,0.8699999,100.7547,0
2026-05-05T17:18:23.037+02:00,1777994302.000194,53.2356729079537,10.40149281733706,27.82473,0,0.8273451,-1,-1,7.999999999999999,5.429927758788004,-9999,3962.765538125,0.0947418212890625,-0.1038818359375,-0.9809417724609375,3962.760501125,0.005796558851806949,0.007090267205830252,-0.0372401014051504,-0.008564619347453117,-0.03501204773783684,-0.01972224004566669,0.02377733588218689,0.005973145365715027,0.005630791187286377,XArbitraryZVertical,-0.01862905184706424,0.00349053404592976,0.002831748309713476,0.999816398351614,0.0750080868601799,-0.1294930279254913,-0.9887392520904541,0,0,0,-1,-1,2026-05-05T16:12:27.330+02:00,1853,1.428074,0,0,1618.589,0,0,2026-05-05T17:18:20.497+02:00,799687100.5986646,0,0.8699999,100.7547,0
2026-05-05T17:18:23.047+02:00,1777994302.000194,53.2356729079537,10.40149281733706,27.82473,0,0.8273451,-1,-1,7.999999999999999,5.429927758788004,-9999,3962.775611125,0.098358154296875,-0.11895751953125,-0.9842681884765625,3962.770574125,0.005510649984449008,0.006795701186721592,-0.03753548106480715,-0.04607950523495674,-0.01705381833016872,-0.03493734449148178,0.01997722685337067,0.0244908481836319,0.00678861141204834,XArbitraryZVertical,-0.01877581839329389,0.003345524713148588,0.002691054313952435,0.9998145711399185,0.07476461678743362,-0.1291813999414444,-0.9887984991073608,0,0,0,-1,-1,2026-05-05T16:12:27.330+02:00,1853,1.428074,0,0,1618.589,0,0,2026-05-05T17:18:20.497+02:00,799687100.5986646,0,0.8699999,100.7547,0
2026-05-05T17:18:23.057+02:00,1777994302.000194,53.2356729079537,10.40149281733706,27.82473,0,0.8273451,-1,-1,7.999999999999999,5.429927758788004,-9999,3962.785684125,0.1010284423828125,-0.1413421630859375,-0.980224609375,3962.780647125,0.005057668314391858,0.006602382842360077,-0.03799507740131246,-0.04009351879358292,-0.01797021180391312,-0.05296081677079201,0.02193902432918549,0.02116721868515015,0.006921648979187012,XArbitraryZVertical,-0.01900457670167656,0.003252540478705983,0.002465650730858957,0.99981115432427,0.0746491327881813,-0.1286959052085876,-0.9888705015182495,0,0,0,-1,-1,2026-05-05T16:12:27.330+02:00,1853,1.428074,0,0,1618.589,0,0,2026-05-05T17:18:20.497+02:00,799687100.5986646,0,0.8699999,100.7547,0
2026-05-05T17:18:23.067+02:00,1777994302.000194,53.2356729079537,10.40149281733706,27.82473,0,0.8273451,-1,-1,7.999999999999999,5.429927758788004,-9999,3962.795757125,0.09759521484375,-0.1034088134765625,-0.975860595703125,3962.790720125,0.004561902514238447,0.006270276237029391,-0.03813450984522584,0.008460809476673603,-0.04074929654598236,-0.04463151469826698,0.02694571763277054,-0.007584244012832642,0.00540614128112793,XArbitraryZVertical,-0.01907310622084793,0.003091066371453757,0.002220748866696932,0.9998108395749224,0.07440318912267685,-0.1285241544246674,-0.9889113903045654,0,0,0,-1,-1,2026-05-05T16:12:27.330+02:00,1853,1.428074,0,0,1618.589,0,0,2026-05-05T17:18:20.497+02:00,799687100.5986646,0,0.8699999,100.7547,0
2026-05-05T17:18:23.077+02:00,1777994302.000194,53.2356729079537,10.40149281733706,27.82473,0,0.8273451,-1,-1,7.999999999999999,5.429927758788004,-9999,3962.805830125,0.094146728515625,-0.0946807861328125,-0.971435546875,3962.800793125,0.004129018634223654,0.005822233512781243,-0.03793048723517246,0.02715753205120564,-0.0408419743180275,-0.04343362525105476,0.02605056017637253,0.003574416041374207,0.01183551549911499,XArbitraryZVertical,-0.01896999516800335,0.002871431580978023,0.002008921327623977,0.9998138976024967,0.07403185963630676,-0.1286964863538742,-0.98891681432724,0,0,0,-1,-1,2026-05-05T16:12:27.330+02:00,1853,1.428074,0,0,1618.589,0,0,2026-05-05T17:18:20.497+02:00,799687100.5986646,0,0.8699999,100.7547,0
2026-05-05T17:18:23.087+02:00,1777994302.000194,53.2356729079537,10.40149281733706,27.82473,0,0.8273451,-1,-1,7.999999999999999,5.429927758788004,-9999,3962.815903125,0.09771728515625,-0.1077728271484375,-0.96893310546875,3962.810866125,0.003705827480276278,0.005428083268355826,-0.03763351682500012,0.02649259380996227,-0.03071130812168121,-0.0415760725736618,0.02235719561576843,0.03571495413780212,0.01489192247390747,XArbitraryZVertical,-0.01882057311673197,0.002678689374235528,0.001801511417193166,0.9998177346522457,0.07371216267347336,-0.1289614140987396,-0.98890620470047,0,0,0,-1,-1,2026-05-05T16:12:27.330+02:00,1853,1.428074,0,0,1618.589,0,0,2026-05-05T17:18:20.497+02:00,799687100.5986646,0,0.8699999,100.7547,0
2026-05-05T17:18:23.097+02:00,1777994303.000197,53.23566526313196,10.4015132048496,25.73068,0.66,0.97,163.125002298636,119.0872933266196,5.999999999999979,4.890059363221343,-9999,3962.825976125,0.096771240234375,-0.11431884765625,-0.9769134521484375,3962.820939125,0.003238870222462517,0.005130940910920842,-0.03745703793361092,0.01055490598082542,-0.02048902958631516,-0.05516431853175163,0.02058997005224228,0.02816721796989441,0.0209166407585144,XArbitraryZVertical,-0.01873148984031016,0.0025346863664491,0.001571100375829447,0.99982020841311,0.07349574565887451,-0.1291041076183319,-0.9889037013053894,0,0,0,-1,-1,2026-05-05T16:12:27.330+02:00,1853,1.428074,0,0,1618.589,0,0,2026-05-05T17:18:20.497+02:00,799687100.5986646,0,0.8699999,100.7547,0
2026-05-05T17:18:23.107+02:00,1777994303.000197,53.23566526313196,10.4015132048496,25.73068,0.66,0.97,163.125002298636,119.0872933266196,5.999999999999979,4.890059363221343,-9999,3962.836049125,0.0985565185546875,-0.13092041015625,-0.9826202392578125,3962.831012125,0.002643343897882189,0.004929972748652463,-0.03736121268866244,0.006796919740736485,-0.0139975743368268,-0.06368909776210785,0.02580159157514572,0.01850143074989319,0.01661401987075806,XArbitraryZVertical,-0.01868270190793521,0.002439863239408807,0.001275392130554151,0.9998217925258308,0.07339581847190857,-0.1291581690311432,-0.9889040589332581,0,0,0,-1,-1,2026-05-05T16:12:27.330+02:00,1853,1.428074,0,0,1618.589,0,0,2026-05-05T17:18:20.497+02:00,799687100.5986646,0,0.8699999,100.7547,0
2026-05-05T17:18:23.117+02:00,1777994303.000197,53.23566526313196,10.4015132048496,25.73068,0.66,0.97,163.125002298636,119.0872933266196,5.999999999999979,4.890059363221343,-9999,3962.846122125,0.106842041015625,-0.127532958984375,-0.98516845703125,3962.841085125,0.001971929502372026,0.004761722123389591,-0.03723822598073383,0.01610147021710873,-0.008226504549384117,-0.06603480875492096,0.0214468315243721,0.007041394710540771,0.008902549743652344,XArbitraryZVertical,-0.01862032246500444,0.002362088308971518,0.0009414640041790055,0.9998233920258328,0.07334078848361969,-0.1292337775230408,-0.9888982772827148,0,0,0,-1,-1,2026-05-05T16:12:27.330+02:00,1853,1.428074,0,0,1618.589,0,0,2026-05-05T17:18:20.497+02:00,799687100.5986646,0,0.8699999,100.7547,0
2026-05-05T17:18:23.127+02:00,1777994303.000197,53.23566526313196,10.4015132048496,25.73068,0.66,0.97,163.125002298636,119.0872933266196,5.999999999999979,4.890059363221343,-9999,3962.856195125,0.1019287109375,-0.1183013916015625,-0.983123779296875,3962.851158125,0.001317445141915636,0.004637122588466287,-0.03706462903396328,0.01787380501627922,-0.005360144190490246,-0.06416953355073929,0.03043372184038162,-0.003177255392074585,0.005270719528198242,XArbitraryZVertical,-0.0185327266258686,0.00230595361703719,0.0006156418300691805,0.9998254214142004,0.07332607358694077,-0.1293605864048004,-0.9888827800750732,0,0,0,-1,-1,2026-05-05T16:12:27.330+02:00,1853,1.428074,0,0,1618.589,0,0,2026-05-05T17:18:20.497+02:00,799687100.5986646,0,0.8699999,100.7547,0
2026-05-05T17:18:23.137+02:00,1777994303.000197,53.23566526313196,10.4015132048496,25.73068,0.66,0.97,163.125002298636,119.0872933266196,5.999999999999979,4.890059363221343,-9999,3962.866268125,0.101470947265625,-0.1185455322265625,-0.9852447509765625,3962.861231125,0.0007244762919042855,0.004596581707407927,-0.03688403239857274,0.01497735176235437,0.003198190359398723,-0.05507110804319382,0.03139788657426834,0.008664116263389587,0.004454910755157471,XArbitraryZVertical,-0.01844175277717006,0.002291217786413279,0.000319792901896186,0.9998272888698072,0.07338424772024155,-0.1294984817504883,-0.9888604283332825,0,0,0,-1,-1,2026-05-05T16:12:27.330+02:00,1853,1.428074,0,0,1618.589,0,0,2026-05-05T17:18:20.497+02:00,799687100.5986646,0,0.8699999,100.7547,0
2026-05-05T17:18:23.147+02:00,1777994303.000197,53.23566526313196,10.4015132048496,25.73068,0.66,0.97,163.125002298636,119.0872933266196,5.999999999999979,4.890059363221343,-9999,3962.876341125,0.099945068359375,-0.119384765625,-0.98492431640625,3962.871304125,0.0001736938038022005,0.004619099918992831,-0.036759490263913,0.008648348972201347,0.007781489752233028,-0.05513156205415726,0.02675247192382812,0.01161806285381317,0.005823850631713867,XArbitraryZVertical,-0.01837886070406874,0.002307561543700232,4.438549211405121e-05,0.9998284892063779,0.07349779456853867,-0.1295837610960007,-0.9888408184051514,0,0,0,-1,-1,2026-05-05T16:12:27.330+02:00,1853,1.428074,0,0,1618.589,0,0,2026-05-05T17:18:20.497+02:00,799687100.5986646,0,0.8699999,100.7547,0
2026-05-05T17:18:23.157+02:00,1777994303.000197,53.23566526313196,10.4015132048496,25.73068,0.66,0.97,163.125002298636,119.0872933266196,5.999999999999979,4.890059363221343,-9999,3962.886414125,0.0956878662109375,-0.1184844970703125,-0.9866180419921875,3962.881378125,-0.0003623163219723961,0.004641547942966034,-0.03667816669659072,0.006062952801585197,0.004945755936205387,-0.0526907742023468,0.02790792286396027,0.01012042164802551,0.002590298652648926,XArbitraryZVertical,-0.01833758468060982,0.002323703591934663,-0.0002236856407808219,0.9998291636487261,0.07360881567001343,-0.1296272575855255,-0.9888268113136292,0,0,0,-1,-1,2026-05-05T16:12:27.330+02:00,1853,1.428074,0,0,1618.589,0,0,2026-05-05T17:18:20.497+02:00,799687100.5986646,0,0.8699999,100.7547,0
2026-05-05T17:18:23.167+02:00,1777994303.000197,53.23566526313196,10.4015132048496,25.73068,0.66,0.97,163.125002298636,119.0872933266196,5.999999999999979,4.890059363221343,-9999,3962.896487125,0.0962066650390625,-0.1146240234375,-0.988311767578125,3962.891451125,-0.0009116883906739463,0.004630212825837001,-0.03665538923966074,-0.00242161238566041,-0.0007422228809446096,-0.05782854557037354,0.02334199845790863,0.009967699646949768,0.00447845458984375,XArbitraryZVertical,-0.01832556230679529,0.002323069357823931,-0.0004981945425772096,0.9998292556015552,0.07368866354227066,-0.1296118646860123,-0.9888229370117188,0,0,0,-1,-1,2026-05-05T16:12:27.330+02:00,1853,1.428074,0,0,1618.589,0,0,2026-05-05T17:18:20.497+02:00,799687100.5986646,0,0.8699999,100.7547,0
2026-05-05T17:18:23.177+02:00,1777994303.000197,53.23566526313196,10.4015132048496,25.73068,0.66,0.97,163.125002298636,119.0872933266196,5.999999999999979,4.890059363221343,-9999,3962.906560125,0.0985565185546875,-0.119903564453125,-0.9870147705078125,3962.901524125,-0.001476827714218996,0.004581509082531111,-0.03665664022588002,0.001037833862937987,-0.002281530061736703,-0.05226700007915497,0.02166379988193512,0.0131164938211441,0.001306533813476562,XArbitraryZVertical,-0.01832554980558128,0.002303900272627453,-0.0007802711210336183,0.9998291052998006,0.07373417168855667,-0.1295715570449829,-0.9888247847557068,0,0,0,-1,-1,2026-05-05T16:12:27.330+02:00,1853,1.428074,0,0,1618.589,0,0,2026-05-05T17:18:20.497+02:00,799687100.5986646,0,0.8699999,100.7547,0
2026-05-05T17:18:23.188+02:00,1777994303.000197,53.23566526313196,10.4015132048496,25.73068,0.66,0.97,163.125002298636,119.0872933266196,5.999999999999979,4.890059363221343,-9999,3962.916633125,0.0973052978515625,-0.1197357177734375,-0.981536865234375,3962.911597125,-0.001948577872975959,0.004467958090940898,-0.03662781614799533,0.005728139542043209,-0.008592423051595688,-0.0403168648481369,0.02420037239789963,0.01320390403270721,0.0007144808769226074,XArbitraryZVertical,-0.01831065406223554,0.002251443528598815,-0.001015033531425836,0.9998292805569748,0.07370004057884216,-0.1295674294233322,-0.9888278841972351,0,0,0,-1,-1,2026-05-05T16:12:27.330+02:00,1853,1.428074,0,0,1618.589,0,0,2026-05-05T17:18:20.497+02:00,799687100.5986646,0,0.8699999,100.7547,0
2026-05-05T17:18:23.198+02:00,1777994303.000197,53.23566526313196,10.4015132048496,25.73068,0.66,0.97,163.125002298636,119.0872933266196,5.999999999999979,4.890059363221343,-9999,3962.926706125,0.100738525390625,-0.1089630126953125,-0.977294921875,3962.921670125,-0.002308834827028555,0.00435163347682649,-0.03652883270467586,0.0105306189507246,-0.01000096835196018,-0.03265921026468277,0.02478983253240585,0.007432729005813599,0.003592967987060547,XArbitraryZVertical,-0.01826083478609977,0.002196534283185212,-0.001193959681829578,0.9998300949940764,0.07364464551210403,-0.1296403706073761,-0.9888224601745605,0,0,0,-1,-1,2026-05-05T16:12:27.330+02:00,1853,1.428074,0,0,1618.589,0,0,2026-05-05T17:18:23.076+02:00,799687103.1696333,0,0.9099998,100.7542,0
2026-05-05T17:18:23.208+02:00,1777994303.000197,53.23566526313196,10.4015132048496,25.73068,0.66,0.97,163.125002298636,119.0872933266196,5.999999999999979,4.890059363221343,-9999,3962.936779125,0.1010589599609375,-0.109130859375,-0.9762725830078125,3962.931743125,-0.00265723573194674,0.004208912850476502,-0.03645503038544205,0.002199185080826283,-0.01219781022518873,-0.03793080151081085,0.0249800831079483,0.01503469049930573,0.01062709093093872,XArbitraryZVertical,-0.01822365377018218,0.0021283194167466,-0.001366750644241613,0.999830742378005,0.07356119900941849,-0.1296892315149307,-0.9888222813606262,0,0,0,-1,-1,2026-05-05T16:12:27.330+02:00,1853,1.428074,0,0,1618.589,0,0,2026-05-05T17:18:23.076+02:00,799687103.1696333,0,0.9099998,100.7542,0
2026-05-05T17:18:23.218+02:00,1777994303.000197,53.23566526313196,10.4015132048496,25.73068,0.66,0.97,163.125002298636,119.0872933266196,5.999999999999979,4.890059363221343,-9999,3962.946852125,0.104248046875,-0.125335693359375,-0.9764251708984375,3962.941816125,-0.003124479060508983,0.004118414224162619,-0.03643309648484001,0.004675125703215599,0.001785915577784181,-0.05589861795306206,0.02766247093677521,0.02222613990306854,0.01279616355895996,XArbitraryZVertical,-0.01821226279708489,0.002087318374507574,-0.001599485818569502,0.9998307216646215,0.07354909181594849,-0.1296785175800323,-0.9888245463371277,0,0,0,-1,-1,2026-05-05T16:12:27.330+02:00,1853,1.428074,0,0,1618.589,0,0,2026-05-05T17:18:23.076+02:00,799687103.1696333,0,0.9099998,100.7542,0
2026-05-05T17:18:23.228+02:00,1777994303.000197,53.23566526313196,10.4015132048496,25.73068,0.66,0.97,163.125002298636,119.0872933266196,5.999999999999979,4.890059363221343,-9999,3962.956925125,0.10992431640625,-0.1331329345703125,-0.9854888916015625,3962.951889125,-0.003684176811540764,0.004050298127456025,-0.0363173111833982,0.01168920006603003,-0.004097805824130774,-0.05493049323558807,0.02832385152578354,0.01363478600978851,0.01295214891433716,XArbitraryZVertical,-0.018153857996543,0.00205825808784382,-0.001878551580492731,0.9998314185746733,0.07357436418533325,-0.1297541707754135,-0.9888127446174622,0,0,0,-1,-1,2026-05-05T16:12:27.330+02:00,1853,1.428074,0,0,1618.589,0,0,2026-05-05T17:18:23.076+02:00,799687103.1696333,0,0.9099998,100.7542,0
2026-05-05T17:18:23.238+02:00,1777994303.000197,53.23566526313196,10.4015132048496,25.73068,0.66,0.97,163.125002298636,119.0872933266196,5.999999999999979,4.890059363221343,-9999,3962.966998125,0.105865478515625,-0.122039794921875,-0.98199462890625,3962.961962125,-0.004169457008275745,0.003991019728968296,-0.03622643038563606,0.002676796400919557,0.0007627294398844242,-0.04031772911548615,0.03468035906553268,-0.00313955545425415,0.00836557149887085,XArbitraryZVertical,-0.01810799027293473,0.002032935871016845,-0.002120523928719899,0.9998317021866127,0.07359602302312851,-0.1298102736473083,-0.9888038039207458,0,0,0,-1,-1,2026-05-05T16:12:27.330+02:00,1853,1.428074,0,0,1618.589,0,0,2026-05-05T17:18:23.076+02:00,799687103.1696333,0,0.9099998,100.7542,0
2026-05-05T17:18:23.248+02:00,1777994303.000197,53.23566526313196,10.4015132048496,25.73068,0.66,0.97,163.125002298636,119.0872933266196,5.999999999999979,4.890059363221343,-9999,3962.977071125,0.1119232177734375,-0.1336669921875,-0.9809112548828125,3962.972035125,-0.004547431436273603,0.004017651321964269,-0.03622852718943255,-0.00802847184240818,0.009047023952007294,-0.03639582544565201,0.03492715209722519,0.003606945276260376,0.002793192863464355,XArbitraryZVertical,-0.01810862305085572,0.002049673888794112,-0.002309722461916155,0.9998312468184702,0.073684923350811,-0.1297818869352341,-0.9888008832931519,0,0,0,-1,-1,2026-05-05T16:12:27.330+02:00,1853,1.428074,0,0,1618.589,0,0,2026-05-05T17:18:23.076+02:00,799687103.1696333,0,0.9099998,100.7542,0
2026-05-05T17:18:23.258+02:00,1777994303.000197,53.23566526313196,10.4015132048496,25.73068,0.66,0.97,163.125002298636,119.0872933266196,5.999999999999979,4.890059363221343,-9999,3962.987145125,0.109375,-0.1241912841796875,-0.982635498046875,3962.982108125,-0.004933263311076152,0.004057273849377532,-0.03629690494221953,-0.003412148449569941,0.004412591457366943,-0.03913541883230209,0.03406114131212234,0.002337515354156494,0.009160876274108887,XArbitraryZVertical,-0.01814236056993703,0.002073058236118339,-0.002503032333414135,0.9998301345148308,0.07378799468278885,-0.1296873539686203,-0.9888055920600891,0,0,0,-1,-1,2026-05-05T16:12:27.330+02:00,1853,1.428074,0,0,1618.589,0,0,2026-05-05T17:18:23.076+02:00,799687103.1696333,0,0.9099998,100.7542,0
2026-05-05T17:18:23.268+02:00,1777994303.000197,53.23566526313196,10.4015132048496,25.73068,0.66,0.97,163.125002298636,119.0872933266196,5.999999999999979,4.890059363221343,-9999,3962.997218125,0.0998992919921875,-0.1113433837890625,-0.9827423095703125,3962.992181125,-0.005322006342187984,0.004026602417755388,-0.03627639347338382,0.005136012565344572,-0.004965730011463165,-0.03752740100026131,0.03820806741714478,-0.002491086721420288,0.006610989570617676,XArbitraryZVertical,-0.01813174395676563,0.002061224457040595,-0.002697072305707315,0.999829885613337,0.07382199168205261,-0.1296805441379547,-0.9888039827346802,0,0,0,-1,-1,2026-05-05T16:12:27.330+02:00,1853,1.428074,0,0,1618.589,0,0,2026-05-05T17:18:23.076+02:00,799687103.1696333,0,0.9099998,100.7542,0
2026-05-05T17:18:23.278+02:00,1777994303.000197,53.23566526313196,10.4015132048496,25.73068,0.66,0.97,163.125002298636,119.0872933266196,5.999999999999979,4.890059363221343,-9999,3963.007291125,0.097747802734375,-0.1143951416015625,-0.9793701171875,3963.002254125,-0.00572221062669277,0.00395248282498069,-0.03622778461650117,0.002136228140443563,0.0008780441712588072,-0.04002118855714798,0.03032637387514114,0.0144510418176651,0.006746172904968262,XArbitraryZVertical,-0.01810713815069837,0.00202773048524507,-0.002896421618870185,0.9998298452796043,0.07381488382816315,-0.1297006756067276,-0.9888018369674683,0,0,0,-1,-1,2026-05-05T16:12:27.330+02:00,1853,1.428074,0,0,1618.589,0,0,2026-05-05T17:18:23.076+02:00,799687103.1696333,0,0.9099998,100.7542,0
2026-05-05T17:18:23.288+02:00,1777994303.000197,53.23566526313196,10.4015132048496,25.73068,0.66,0.97,163.125002298636,119.0872933266196,5.999999999999979,4.890059363221343,-9999,3963.017364125,0.096588134765625,-0.12457275390625,-0.9750213623046875,3963.012327125,-0.006160917720335778,0.004213965178242768,-0.03637846664968124,-0.00629320926964283,0.01203375868499279,-0.03659329935908318,0.02384588122367859,0.0182538777589798,0.006958603858947754,XArbitraryZVertical,-0.01818161366369777,0.002162650300698603,-0.003118259545424105,0.9998275348247376,0.0741460844874382,-0.1295209676027298,-0.9888006448745728,0,0,0,-1,-1,2026-05-05T16:12:27.330+02:00,1853,1.428074,0,0,1618.589,0,0,2026-05-05T17:18:23.076+02:00,799687103.1696333,0,0.9099998,100.7542,0
2026-05-05T17:18:23.298+02:00,1777994303.000197,53.23566526313196,10.4015132048496,25.73068,0.66,0.97,163.125002298636,119.0872933266196,5.999999999999979,4.890059363221343,-9999,3963.027437125,0.0956878662109375,-0.127899169921875,-0.972137451171875,3963.022400125,-0.006568410593500067,0.004591845857400933,-0.03675299186378723,-0.03204544633626938,0.01461889035999775,-0.03671979904174805,0.02236700803041458,0.01048494875431061,0.0117841362953186,XArbitraryZVertical,-0.01836777346042016,0.002355869174017436,-0.003325824288635874,0.9998230834042601,0.07458735257387161,-0.1291220188140869,-0.9888195991516113,0,0,0,-1,-1,2026-05-05T16:12:27.330+02:00,1853,1.428074,0,0,1618.589,0,0,2026-05-05T17:18:23.076+02:00,799687103.1696333,0,0.9099998,100.7542,0
2026-05-05T17:18:23.308+02:00,1777994303.000197,53.23566526313196,10.4015132048496,25.73068,0.66,0.97,163.125002298636,119.0872933266196,5.999999999999979,4.890059363221343,-9999,3963.037510125,0.096923828125,-0.132720947265625,-0.96722412109375,3963.032473125,-0.00701447747397695,0.005021120924056399,-0.03733279770073609,-0.06876521557569504,0.0212208665907383,-0.04583512991666794,0.02040357887744904,0.001747220754623413,0.01480060815811157,XArbitraryZVertical,-0.01865633623905819,0.002575568183621639,-0.003553469277055759,0.9998164001870481,0.07508595287799835,-0.1285172402858734,-0.9888606667518616,0,0,0,-1,-1,2026-05-05T16:12:27.330+02:00,1853,1.428074,0,0,1618.589,0,0,2026-05-05T17:18:23.076+02:00,799687103.1696333,0,0.9099998,100.7542,0
2026-05-05T17:18:23.319+02:00,1777994303.000197,53.23566526313196,10.4015132048496,25.73068,0.66,0.97,163.125002298636,119.0872933266196,5.999999999999979,4.890059363221343,-9999,3963.047583125,0.0997314453125,-0.141204833984375,-0.966339111328125,3963.042546125,-0.007480025981639877,0.005509205552160781,-0.0381013225775087,-0.08703289926052094,0.02101766690611839,-0.04089763015508652,0.02068266272544861,-0.001273468136787415,0.02014023065567017,XArbitraryZVertical,-0.01903900188028473,0.002825324965389781,-0.003791784571049213,0.9998076252978634,0.07564609497785568,-0.1277243196964264,-0.9889206886291504,0,0,0,-1,-1,2026-05-05T16:12:27.330+02:00,1853,1.428074,0,0,1618.589,0,0,2026-05-05T17:18:23.076+02:00,799687103.1696333,0,0.9099998,100.7542,0
2026-05-05T17:18:23.329+02:00,1777994303.000197,53.23566526313196,10.4015132048496,25.73068,0.66,0.97,163.125002298636,119.0872933266196,5.999999999999979,4.890059363221343,-9999,3963.057656125,0.10162353515625,-0.1255340576171875,-0.96771240234375,3963.052619125,-0.00781887609891037,0.005623746996124741,-0.038905759565598,-0.06829660385847092,0.006049636751413345,-0.02850381284952164,0.02133679389953613,-0.01140104234218597,0.02258259057998657,XArbitraryZVertical,-0.01944043707585053,0.002887360901758157,-0.00396336815370527,0.9997989706980708,0.07581593841314316,-0.126904621720314,-0.9890131950378418,0,0,0,-1,-1,2026-05-05T16:12:27.330+02:00,1853,1.428074,0,0,1618.589,0,0,2026-05-05T17:18:23.076+02:00,799687103.1696333,0,0.9099998,100.7542,0
2026-05-05T17:18:23.339+02:00,1777994303.000197,53.23566526313196,10.4015132048496,25.73068,0.66,0.97,163.125002298636,119.0872933266196,5.999999999999979,4.890059363221343,-9999,3963.067729125,0.0972747802734375,-0.10699462890625,-0.9738922119140625,3963.062692125,-0.008012158055440255,0.005614635089131164,-0.03947738138544165,-0.04863502085208893,0.0006018744315952063,-0.01384364347904921,0.02592161297798157,-0.009966045618057251,0.02312791347503662,XArbitraryZVertical,-0.01972592874788903,0.002885813568044402,-0.004060680805539521,0.9997930120917905,0.07583927363157272,-0.1263254582881927,-0.9890855550765991,0,0,0,-1,-1,2026-05-05T16:12:27.330+02:00,1853,1.428074,0,0,1618.589,0,0,2026-05-05T17:18:23.076+02:00,799687103.1696333,0,0.9099998,100.7542,0
2026-05-05T17:18:23.349+02:00,1777994303.000197,53.23566526313196,10.4015132048496,25.73068,0.66,0.97,163.125002298636,119.0872933266196,5.999999999999979,4.890059363221343,-9999,3963.077802125,0.0975494384765625,-0.113372802734375,-0.97784423828125,3963.072765125,-0.008125966882703539,0.005561480368811613,-0.0398338393002087,-0.02516538091003895,-0.004803011193871498,-0.006656771060079336,0.02395622432231903,0.01280556619167328,0.01786649227142334,XArbitraryZVertical,-0.01990406615880755,0.002861078434886583,-0.004117530414026033,0.9997892986767174,0.07580575346946716,-0.1259647458791733,-0.9891341328620911,0,0,0,-1,-1,2026-05-05T16:12:27.330+02:00,1853,1.428074,0,0,1618.589,0,0,2026-05-05T17:18:23.076+02:00,799687103.1696333,0,0.9099998,100.7542,0
2026-05-05T17:18:23.359+02:00,1777994303.000197,53.23566526313196,10.4015132048496,25.73068,0.66,0.97,163.125002298636,119.0872933266196,5.999999999999979,4.890059363221343,-9999,3963.087875125,0.0960235595703125,-0.1189422607421875,-0.9802703857421875,3963.082838125,-0.008037909720460167,0.005496350128170125,-0.03996000553146216,-0.003989255521446466,-0.005306082312017679,0.0152266900986433,0.02163948863744736,0.01714245975017548,0.01315736770629883,XArbitraryZVertical,-0.01996739437750389,0.002827893803575339,-0.004073031145905224,0.9997883229906422,0.07572686672210693,-0.1258460879325867,-0.9891552925109863,0,0,0,-1,-1,2026-05-05T16:12:27.330+02:00,1853,1.428074,0,0,1618.589,0,0,2026-05-05T17:18:23.076+02:00,799687103.1696333,0,0.9099998,100.7542,0
2026-05-05T17:18:23.369+02:00,1777994303.000197,53.23566526313196,10.4015132048496,25.73068,0.66,0.97,163.125002298636,119.0872933266196,5.999999999999979,4.890059363221343,-9999,3963.097948125,0.10052490234375,-0.119232177734375,-0.9921112060546875,3963.092911125,-0.007897249620606511,0.005654296188471446,-0.04009705554857265,-0.007000438403338194,-7.536751218140125e-05,0.01977836526930332,0.02077396959066391,0.008303970098495483,0.01114904880523682,XArbitraryZVertical,-0.02003578763284058,0.002905712478692643,-0.00400448115456838,0.9997870037620129,0.07585995644330978,-0.1257203370332718,-0.9891610741615295,0,0,0,-1,-1,2026-05-05T16:12:27.330+02:00,1853,1.428074,0,0,1618.589,0,0,2026-05-05T17:18:23.076+02:00,799687103.1696333,0,0.9099998,100.7542,0
2026-05-05T17:18:23.379+02:00,1777994303.000197,53.23566526313196,10.4015132048496,25.73068,0.66,0.97,163.125002298636,119.0872933266196,5.999999999999979,4.890059363221343,-9999,3963.108021125,0.0973358154296875,-0.11541748046875,-0.9979400634765625,3963.102984125,-0.007801683431197208,0.005822021734387644,-0.04027622164502907,-0.01280053704977036,-0.005368666257709265,0.001045690383762121,0.02211908996105194,0.006027668714523315,0.003895998001098633,XArbitraryZVertical,-0.02012515849635469,0.00298894416063762,-0.003958642188475027,0.9997851455709269,0.07601019740104675,-0.1255497485399246,-0.9891712069511414,0,0,0,-1,-1,2026-05-05T16:12:27.330+02:00,1853,1.428074,0,0,1618.589,0,0,2026-05-05T17:18:23.076+02:00,799687103.1696333,0,0.9099998,100.7542,0
2026-05-05T17:18:23.389+02:00,1777994303.000197,53.23566526313196,10.4015132048496,25.73068,0.66,0.97,163.125002298636,119.0872933266196,5.999999999999979,4.890059363221343,-9999,3963.118094125,0.098297119140625,-0.123443603515625,-1.000167846679688,3963.113058125,-0.007921432570660983,0.005879391360290341,-0.04031046385046721,0.003607997437939048,-0.01640826836228371,-0.0225769467651844,0.02443815767765045,0.007679089903831482,-0.007258713245391846,XArbitraryZVertical,-0.0201419807355144,0.003018894423439384,-0.004019129935685008,0.9997845206453936,0.07608676701784134,-0.1255074739456177,-0.9891707301139832,0,0,0,-1,-1,2026-05-05T16:12:27.330+02:00,1853,1.428074,0,0,1618.589,0,0,2026-05-05T17:18:23.076+02:00,799687103.1696333,0,0.9099998,100.7542,0
2026-05-05T17:18:23.399+02:00,1777994303.000197,53.23566526313196,10.4015132048496,25.73068,0.66,0.97,163.125002298636,119.0872933266196,5.999999999999979,4.890059363221343,-9999,3963.128167125,0.097259521484375,-0.1279449462890625,-0.995208740234375,3963.123131125,-0.008280621429519259,0.005798064796360307,-0.0402574428423375,-0.002111939946189523,-0.03613829612731934,-0.04594618827104568,0.01922552287578583,0.007935225963592529,-0.009061098098754883,XArbitraryZVertical,-0.02011510343544952,0.002981748968224787,-0.004197791787746517,0.9997844748982228,0.07606564462184906,-0.12553471326828,-0.9891688823699951,0,0,0,-1,-1,2026-05-05T16:12:27.330+02:00,1853,1.428074,0,0,1618.589,0,0,2026-05-05T17:18:23.076+02:00,799687103.1696333,0,0.9099998,100.7542,0
2026-05-05T17:18:23.409+02:00,1777994303.000197,53.23566526313196,10.4015132048496,25.73068,0.66,0.97,163.125002298636,119.0872933266196,5.999999999999979,4.890059363221343,-9999,3963.138240125,0.0892181396484375,-0.1282501220703125,-0.984588623046875,3963.133204125,-0.008720663298377019,0.005596694017017859,-0.04012582543066485,0.0005586246261373162,-0.04055355116724968,-0.04660625383257866,0.02367032319307327,-0.002753406763076782,-0.009979486465454102,XArbitraryZVertical,-0.02004909720160032,0.002885227877853896,-0.004415561600351199,0.9997851386404488,0.07593906670808792,-0.125634029507637,-0.9891659617424011,0,0,0,-1,-1,2026-05-05T16:12:27.330+02:00,1853,1.428074,0,0,1618.589,0,0,2026-05-05T17:18:23.076+02:00,799687103.1696333,0,0.9099998,100.7542,0
2026-05-05T17:18:23.419+02:00,1777994303.000197,53.23566526313196,10.4015132048496,25.73068,0.66,0.97,163.125002298636,119.0872933266196,5.999999999999979,4.890059363221343,-9999,3963.148313125,0.098297119140625,-0.131988525390625,-0.9787750244140625,3963.143277125,-0.009282985006692722,0.005537163868424918,-0.04010703374082607,-0.01955090463161469,-0.01473686750978231,-0.06167681515216827,0.01579331606626511,-0.0008975863456726074,-0.0001222491264343262,XArbitraryZVertical,-0.02003903191765819,0.002861063180471511,-0.004696040141666736,0.9997840941662682,0.07597305625677109,-0.1256130188703537,-0.9891660213470459,0,0,0,-1,-1,2026-05-05T16:12:27.330+02:00,1853,1.428074,0,0,1618.589,0,0,2026-05-05T17:18:23.076+02:00,799687103.1696333,0,0.9099998,100.7542,0
2026-05-05T17:18:23.429+02:00,1777994303.000197,53.23566526313196,10.4015132048496,25.73068,0.66,0.97,163.125002298636,119.0872933266196,5.999999999999979,4.890059363221343,-9999,3963.158386125,0.0946197509765625,-0.13916015625,-0.9771270751953125,3963.153350125,-0.009922160268622207,0.005658571801005985,-0.04042301256419484,-0.02324098162353039,-0.002410959685221314,-0.05279943346977234,0.01663556694984436,-0.005558311939239502,0.007626652717590332,XArbitraryZVertical,-0.02019576651441321,0.002928932594676208,-0.005017205924346565,0.9997792025051558,0.07619893550872803,-0.125255286693573,-0.9891940355300903,0,0,0,-1,-1,2026-05-05T16:12:27.330+02:00,1853,1.428074,0,0,1618.589,0,0,2026-05-05T17:18:23.076+02:00,799687103.1696333,0,0.9099998,100.7542,0
2026-05-05T17:18:23.439+02:00,1777994303.000197,53.23566526313196,10.4015132048496,25.73068,0.66,0.97,163.125002298636,119.0872933266196,5.999999999999979,4.890059363221343,-9999,3963.168459125,0.103607177734375,-0.130645751953125,-0.98553466796875,3963.163423125,-0.01037525295876754,0.005866703706102518,-0.04071437858040482,-0.008644461631774902,0.01050670351833105,-0.03473974019289017,0.02093229442834854,-0.01047153770923615,0.01265037059783936,XArbitraryZVertical,-0.02034020721948686,0.003038297557230557,-0.005246215630518769,0.9997747689711204,0.07647983729839325,-0.1249349638819695,-0.9892128705978394,0,0,0,-1,-1,2026-05-05T16:12:27.330+02:00,1853,1.428074,0,0,1618.589,0,0,2026-05-05T17:18:23.076+02:00,799687103.1696333,0,0.9099998,100.7542,0
2026-05-05T17:18:23.450+02:00,1777994303.000197,53.23566526313196,10.4015132048496,25.73068,0.66,0.97,163.125002298636,119.0872933266196,5.999999999999979,4.890059363221343,-9999,3963.178532125,0.1033477783203125,-0.1114959716796875,-0.9864959716796875,3963.173496125,-0.01071395936685524,0.006182903797295271,-0.04082845450236575,-0.003643364179879427,0.01550678815692663,-0.0264509804546833,0.02009047567844391,-0.01337017863988876,0.007954657077789307,XArbitraryZVertical,-0.02039586045547436,0.003200108241541648,-0.005418916164473984,0.9997722343823027,0.07684862613677979,-0.1247981488704681,-0.989201545715332,0,0,0,-1,-1,2026-05-05T16:12:27.330+02:00,1853,1.428074,0,0,1618.589,0,0,2026-05-05T17:18:23.076+02:00,799687103.1696333,0,0.9099998,100.7542,0
2026-05-05T17:18:23.460+02:00,1777994303.000197,53.23566526313196,10.4015132048496,25.73068,0.66,0.97,163.125002298636,119.0872933266196,5.999999999999979,4.890059363221343,-9999,3963.188605125,0.09619140625,-0.11053466796875,-0.991607666015625,3963.183569125,-0.01100637200144873,0.006534142033053821,-0.040919615409326,-0.005372288171201944,0.01675554551184177,-0.02658147551119328,0.02875842154026031,0.005180425941944122,0.001925826072692871,XArbitraryZVertical,-0.02043998403927824,0.003378916734739778,-0.005568814402794751,0.99976995490728,0.07724440842866898,-0.1246872693300247,-0.9891847372055054,0,0,0,-1,-1,2026-05-05T16:12:27.330+02:00,1853,1.428074,0,0,1618.589,0,0,2026-05-05T17:18:23.076+02:00,799687103.1696333,0,0.9099998,100.7542,0
2026-05-05T17:18:23.470+02:00,1777994303.000197,53.23566526313196,10.4015132048496,25.73068,0.66,0.97,163.125002298636,119.0872933266196,5.999999999999979,4.890059363221343,-9999,3963.198678125,0.100067138671875,-0.122833251953125,-0.993896484375,3963.193642125,-0.01128769469773369,0.006901732061654558,-0.04110488748307327,-0.01732088066637516,0.01707112789154053,-0.02475947514176369,0.02111556380987167,0.01593296229839325,0.0002560615539550781,XArbitraryZVertical,-0.02053107420797028,0.003566060613665155,-0.005713509004452719,0.9997665828206271,0.07765460014343262,-0.1244839951395988,-0.9891781806945801,0,0,0,-1,-1,2026-05-05T16:12:27.330+02:00,1853,1.428074,0,0,1618.589,0,0,2026-05-05T17:18:23.076+02:00,799687103.1696333,0,0.9099998,100.7542,0
2026-05-05T17:18:23.480+02:00,1777994303.000197,53.23566526313196,10.4015132048496,25.73068,0.66,0.97,163.125002298636,119.0872933266196,5.999999999999979,4.890059363221343,-9999,3963.208752125,0.102447509765625,-0.12994384765625,-0.989013671875,3963.203715125,-0.01149270348757225,0.007234719931069288,-0.04141629216910615,-0.02866781130433083,0.02437591180205345,-0.01185113284736872,0.01899731159210205,0.007843531668186188,-0.005148828029632568,XArbitraryZVertical,-0.02068540555183937,0.00373550291109574,-0.005819952210539641,0.9997621727186001,0.07801809161901474,-0.1241612806916237,-0.9891901612281799,0,0,0,-1,-1,2026-05-05T16:12:27.330+02:00,1853,1.428074,0,0,1618.589,0,0,2026-05-05T17:18:23.076+02:00,799687103.1696333,0,0.9099998,100.7542,0
2026-05-05T17:18:23.490+02:00,1777994303.000197,53.23566526313196,10.4015132048496,25.73068,0.66,0.97,163.125002298636,119.0872933266196,5.999999999999979,4.890059363221343,-9999,3963.218825125,0.104705810546875,-0.1247711181640625,-0.987640380859375,3963.213788125,-0.01159939633275896,0.00767171158712919,-0.04170405072243486,-0.03056818805634975,0.02251782454550266,-0.007543869782239199,0.0237351581454277,-0.003389373421669006,-0.002553761005401611,XArbitraryZVertical,-0.0208277672248773,0.003955872868783323,-0.005878339843886063,0.9997580294152223,0.07846823334693909,-0.1238689199090004,-0.9891911745071411,0,0,0,-1,-1,2026-05-05T16:12:27.330+02:00,1853,1.428074,0,0,1618.589,0,0,2026-05-05T17:18:23.076+02:00,799687103.1696333,0,0.9099998,100.7542,0
2026-05-05T17:18:23.500+02:00,1777994303.000197,53.23566526313196,10.4015132048496,25.73068,0.66,0.97,163.125002298636,119.0872933266196,5.999999999999979,4.890059363221343,-9999,3963.228898125,0.1014556884765625,-0.12225341796875,-0.9892730712890625,3963.223861125,-0.01168385627805925,0.008014364751805364,-0.04198490336221694,-0.03705884516239166,0.01975665986537933,-0.008909005671739578,0.02464847266674042,-0.005672231316566467,0.001726150512695312,XArbitraryZVertical,-0.02096697727606004,0.004128845751647885,-0.005924673139616677,0.9997541630519469,0.07882139086723328,-0.1235849633812904,-0.989198625087738,0,0,0,-1,-1,2026-05-05T16:12:27.330+02:00,1853,1.428074,0,0,1618.589,0,0,2026-05-05T17:18:23.076+02:00,799687103.1696333,0,0.9099998,100.7542,0
2026-05-05T17:18:23.510+02:00,1777994303.000197,53.23566526313196,10.4015132048496,25.73068,0.66,0.97,163.125002298636,119.0872933266196,5.999999999999979,4.890059363221343,-9999,3963.238971125,0.10089111328125,-0.12408447265625,-0.9881591796875,3963.233934125,-0.01174969619370841,0.008360213074785426,-0.04229000198138587,-0.04352207109332085,0.01899073459208012,-0.001099818851798773,0.02443252503871918,0.001192733645439148,0.0002865791320800781,XArbitraryZVertical,-0.021118322514589,0.004303300097571211,-0.005961829258267279,0.9997500143912773,0.07917467504739761,-0.1232783049345016,-0.9892086982727051,0,0,0,-1,-1,2026-05-05T16:12:27.330+02:00,1853,1.428074,0,0,1618.589,0,0,2026-05-05T17:18:23.076+02:00,799687103.1696333,0,0.9099998,100.7542,0
2026-05-05T17:18:23.520+02:00,1777994303.000197,53.23566526313196,10.4015132048496,25.73068,0.66,0.97,163.125002298636,119.0872933266196,5.999999999999979,4.890059363221343,-9999,3963.249044125,0.10565185546875,-0.125701904296875,-0.9892730712890625,3963.244007125,-0.01169467956905159,0.008768166764551765,-0.04270288124697454,-0.05591029673814774,0.02981675043702126,0.01098480634391308,0.02078749239444733,-0.0004785433411598206,0.001052916049957275,XArbitraryZVertical,-0.02132361728365186,0.004507832467388974,-0.005939514461641668,0.9997449029592657,0.07956959307193756,-0.1228735148906708,-0.9892273545265198,0,0,0,-1,-1,2026-05-05T16:12:27.330+02:00,1853,1.428074,0,0,1618.589,0,0,2026-05-05T17:18:23.076+02:00,799687103.1696333,0,0.9099998,100.7542,0
2026-05-05T17:18:23.530+02:00,1777994303.000197,53.23566526313196,10.4015132048496,25.73068,0.66,0.97,163.125002298636,119.0872933266196,5.999999999999979,4.890059363221343,-9999,3963.259117125,0.11163330078125,-0.1273651123046875,-0.99176025390625,3963.254080125,-0.01158145000939462,0.009211320642435347,-0.04316652461388008,-0.05941719934344292,0.03083674237132072,0.008848220109939575,0.02383101731538773,-0.003050461411476135,-8.404254913330078e-06,XArbitraryZVertical,-0.02155433053894163,0.004729464753996783,-0.005888677489366584,0.9997392283658333,0.07998980581760406,-0.1224225610494614,-0.9892494082450867,0,0,0,-1,-1,2026-05-05T16:12:27.330+02:00,1853,1.428074,0,0,1618.589,0,0,2026-05-05T17:18:23.076+02:00,799687103.1696333,0,0.9099998,100.7542,0
2026-05-05T17:18:23.540+02:00,1777994303.000197,53.23566526313196,10.4015132048496,25.73068,0.66,0.97,163.125002298636,119.0872933266196,5.999999999999979,4.890059363221343,-9999,3963.269190125,0.1120452880859375,-0.122711181640625,-0.991241455078125,3963.264153125,-0.01152600796479624,0.009688330863942132,-0.04370928911736485,-0.0427069291472435,0.02714134007692337,0.006678275763988495,0.02806736528873444,-0.004590950906276703,-0.0003463625907897949,XArbitraryZVertical,-0.02182437460628038,0.004968845235728141,-0.005867384908344531,0.999732299288021,0.08045317232608795,-0.1218891516327858,-0.9892776608467102,0,0,0,-1,-1,2026-05-05T16:12:27.330+02:00,1853,1.428074,0,0,1618.589,0,0,2026-05-05T17:18:23.076+02:00,799687103.1696333,0,0.9099998,100.7542,0
2026-05-05T17:18:23.550+02:00,1777994303.000197,53.23566526313196,10.4015132048496,25.73068,0.66,0.97,163.125002298636,119.0872933266196,5.999999999999979,4.890059363221343,-9999,3963.279263125,0.1096038818359375,-0.1155853271484375,-0.98455810546875,3963.274226125,-0.01142303354442618,0.01003648273210382,-0.04412031796285278,-0.02434166520833969,0.01760908775031567,0.01513181533664465,0.03161516785621643,-0.004075057804584503,-0.003329873085021973,XArbitraryZVertical,-0.02202907613228635,0.005142901552134075,-0.005820715647559957,0.9997272295150569,0.08078110218048096,-0.121489517390728,-0.9893001317977905,0,0,0,-1,-1,2026-05-05T16:12:27.330+02:00,1853,1.428074,0,0,1618.589,0,0,2026-05-05T17:18:23.076+02:00,799687103.1696333,0,0.9099998,100.7542,0
2026-05-05T17:18:23.560+02:00,1777994303.000197,53.23566526313196,10.4015132048496,25.73068,0.66,0.97,163.125002298636,119.0872933266196,5.999999999999979,4.890059363221343,-9999,3963.289336125,0.1055755615234375,-0.108428955078125,-0.9819183349609375,3963.284299125,-0.0112809672019354,0.01031214515334151,-0.04432320882202072,-0.007865220308303833,0.01381301786750555,0.0130500216037035,0.03022124618291855,0.001868128776550293,0.001510143280029297,XArbitraryZVertical,-0.02213006791039854,0.005279691204795716,-0.005753248810554791,0.9997246092745175,0.08103061467409134,-0.1212986707687378,-0.9893031120300293,0,0,0,-1,-1,2026-05-05T16:12:27.330+02:00,1853,1.428074,0,0,1618.589,0,0,2026-05-05T17:18:23.076+02:00,799687103.1696333,0,0.9099998,100.7542,0
2026-05-05T17:18:23.570+02:00,1777994303.000197,53.23566526313196,10.4015132048496,25.73068,0.66,0.97,163.125002298636,119.0872933266196,5.999999999999979,4.890059363221343,-9999,3963.299409125,0.1050872802734375,-0.1112213134765625,-0.980255126953125,3963.294372125,-0.01122727873264342,0.01057935293219798,-0.0443339545403184,-0.002455061767250299,0.002781138988211751,0.001985320122912526,0.02627311646938324,0.01023836433887482,0.00719684362411499,XArbitraryZVertical,-0.02213481563079008,0.005412693699921355,-0.005729396311111692,0.9997239351342773,0.08128611743450165,-0.1212918311357498,-0.98928302526474,0,0,0,-1,-1,2026-05-05T16:12:27.330+02:00,1853,1.428074,0,0,1618.589,0,0,2026-05-05T17:18:23.076+02:00,799687103.1696333,0,0.9099998,100.7542,0
2026-05-05T17:18:23.580+02:00,1777994303.000197,53.23566526313196,10.4015132048496,25.73068,0.66,0.97,163.125002298636,119.0872933266196,5.999999999999979,4.890059363221343,-9999,3963.309482125,0.105743408203125,-0.1175994873046875,-0.9741363525390625,3963.304446125,-0.0112261755305377,0.01077863524986703,-0.04425357705224904,0.001651266356930137,-0.00833596009761095,0.005885519552975893,0.02413839846849442,0.01327821612358093,0.00784224271774292,XArbitraryZVertical,-0.02209407056268037,0.00551207453871835,-0.005730838994019999,0.9997242586997215,0.08148296922445297,-0.1213714778423309,-0.9892570376396179,0,0,0,-1,-1,2026-05-05T16:12:27.330+02:00,1853,1.428074,0,0,1618.589,0,0,2026-05-05T17:18:23.076+02:00,799687103.1696333,0,0.9099998,100.7542,0
2026-05-05T17:18:23.590+02:00,1777994303.000197,53.23566526313196,10.4015132048496,25.73068,0.66,0.97,163.125002298636,119.0872933266196,5.999999999999979,4.890059363221343,-9999,3963.319555125,0.1028289794921875,-0.120330810546875,-0.969482421875,3963.314519125,-0.01112163077106154,0.01089495727925032,-0.04418858623409259,0.01229448337107897,-0.01280394569039345,0.02292462438344955,0.02341503649950027,0.007734738290309906,0.01170116662979126,XArbitraryZVertical,-0.0220615415608102,0.005568887793163912,-0.005679692985665066,0.9997249671384743,0.08158070594072342,-0.1214432269334793,-0.9892401695251465,0,0,0,-1,-1,2026-05-05T16:12:27.330+02:00,1853,1.428074,0,0,1618.589,0,0,2026-05-05T17:18:23.076+02:00,799687103.1696333,0,0.9099998,100.7542,0
2026-05-05T17:18:23.601+02:00,1777994303.000197,53.23566526313196,10.4015132048496,25.73068,0.66,0.97,163.125002298636,119.0872933266196,5.999999999999979,4.890059363221343,-9999,3963.329628125,0.099273681640625,-0.118560791015625,-0.96856689453125,3963.324592125,-0.01089449482393591,0.01090204810495731,-0.04402071180275083,0.01826103031635284,-0.02520788460969925,0.02776678279042244,0.0237356498837471,0.002256006002426147,0.01841038465499878,XArbitraryZVertical,-0.02197823857722636,0.005569479381274494,-0.005565786774202687,0.999727493280677,0.08155002444982529,-0.1216255128383636,-0.9892203211784363,0,0,0,-1,-1,2026-05-05T16:12:27.330+02:00,1853,1.428074,0,0,1618.589,0,0,2026-05-05T17:18:23.076+02:00,799687103.1696333,0,0.9099998,100.7542,0
2026-05-05T17:18:23.611+02:00,1777994303.000197,53.23566526313196,10.4015132048496,25.73068,0.66,0.97,163.125002298636,119.0872933266196,5.999999999999979,4.890059363221343,-9999,3963.339701125,0.1012420654296875,-0.118438720703125,-0.9738616943359375,3963.334665125,-0.01058834125264264,0.01084194537102585,-0.0438003532232158,0.01695395074784756,-0.02882419154047966,0.03495984897017479,0.01903939992189407,0.002648398280143738,0.02121281623840332,XArbitraryZVertical,-0.02186910340918892,0.005535501584511143,-0.005411506706803722,0.9997309443757164,0.08143974840641022,-0.1218653172254562,-0.9891998767852783,0,0,0,-1,-1,2026-05-05T16:12:27.330+02:00,1853,1.428074,0,0,1618.589,0,0,2026-05-05T17:18:23.076+02:00,799687103.1696333,0,0.9099998,100.7542,0
2026-05-05T17:18:23.621+02:00,1777994303.000197,53.23566526313196,10.4015132048496,25.73068,0.66,0.97,163.125002298636,119.0872933266196,5.999999999999979,4.890059363221343,-9999,3963.349774125,0.0999755859375,-0.1187744140625,-0.976409912109375,3963.344738125,-0.01026286501890517,0.01085989731785518,-0.04368797991008453,-0.005433115176856518,-0.01627351157367229,0.03224581852555275,0.01904500275850296,0.004323743283748627,0.01863580942153931,XArbitraryZVertical,-0.0218137874365343,0.00554063517102252,-0.005248710499314744,0.9997328879389742,0.08140362054109573,-0.121999517083168,-0.9891862869262695,0,0,0,-1,-1,2026-05-05T16:12:27.330+02:00,1853,1.428074,0,0,1618.589,0,0,2026-05-05T17:18:23.076+02:00,799687103.1696333,0,0.9099998,100.7542,0
2026-05-05T17:18:23.631+02:00,1777994303.000197,53.23566526313196,10.4015132048496,25.73068,0.66,0.97,163.125002298636,119.0872933266196,5.999999999999979,4.890059363221343,-9999,3963.359847125,0.097808837890625,-0.1157379150390625,-0.9759063720703125,3963.354811125,-0.00997746883596295,0.01100595366608266,-0.04375121760633097,-0.01410532649606466,-0.01513687521219254,0.03180273622274399,0.01969523727893829,0.003091111779212952,0.01295673847198486,XArbitraryZVertical,-0.0218458134365219,0.005610684421891663,-0.005107813563007609,0.999732615543337,0.0815010741353035,-0.121957078576088,-0.9891835451126099,0,0,0,-1,-1,2026-05-05T16:12:27.330+02:00,1853,1.428074,0,0,1618.589,0,0,2026-05-05T17:18:23.076+02:00,799687103.1696333,0,0.9099998,100.7542,0
2026-05-05T17:18:23.641+02:00,1777994303.000197,53.23566526313196,10.4015132048496,25.73068,0.66,0.97,163.125002298636,119.0872933266196,5.999999999999979,4.890059363221343,-9999,3963.369920125,0.1075439453125,-0.1193389892578125,-0.9839935302734375,3963.364884125,-0.009700386945216442,0.01108476678957384,-0.04390679772532693,-0.01865267381072044,-0.01759949885308743,0.0240409541875124,0.01577181369066238,0.004863977432250977,0.01374882459640503,XArbitraryZVertical,-0.02192416351851,0.005647421492584965,-0.004970593170315001,0.9997314076351739,0.08153350651264191,-0.1218225955963135,-0.9891974329948425,0,0,0,-1,-1,2026-05-05T16:12:27.330+02:00,1853,1.428074,0,0,1618.589,0,0,2026-05-05T17:18:23.076+02:00,799687103.1696333,0,0.9099998,100.7542,0
2026-05-05T17:18:23.651+02:00,1777994303.000197,53.23566526313196,10.4015132048496,25.73068,0.66,0.97,163.125002298636,119.0872933266196,5.999999999999979,4.890059363221343,-9999,3963.379993125,0.1108856201171875,-0.1206512451171875,-0.988311767578125,3963.374957125,-0.009486648649071028,0.01120557246114495,-0.04414199240134817,-0.01172696333378553,-0.004891161806881428,0.02552533335983753,0.02073796093463898,0.004569873213768005,0.01108312606811523,XArbitraryZVertical,-0.02204204012398213,0.005706008566576814,-0.004865723746438506,0.999728940724901,0.08161802589893341,-0.121604785323143,-0.9892172813415527,0,0,0,-1,-1,2026-05-05T16:12:27.330+02:00,1853,1.428074,0,0,1618.589,0,0,2026-05-05T17:18:23.076+02:00,799687103.1696333,0,0.9099998,100.7542,0
2026-05-05T17:18:23.661+02:00,1777994303.000197,53.23566526313196,10.4015132048496,25.73068,0.66,0.97,163.125002298636,119.0872933266196,5.999999999999979,4.890059363221343,-9999,3963.390066125,0.1074066162109375,-0.105621337890625,-0.9828643798828125,3963.385030125,-0.00933141200838793,0.0113759871772751,-0.04427756789872481,0.008048338815569878,-0.006591057404875755,0.01534992828965187,0.02910921722650528,0.0006624162197113037,0.001610755920410156,XArbitraryZVertical,-0.02210984346506742,0.005789789403928924,-0.004790382917656533,0.9997273624437913,0.08176115900278091,-0.1214815005660057,-0.9892205595970154,0,0,0,-1,-1,2026-05-05T16:12:27.330+02:00,1853,1.428074,0,0,1618.589,0,0,2026-05-05T17:18:23.076+02:00,799687103.1696333,0,0.9099998,100.7542,0
2026-05-05T17:18:23.671+02:00,1777994303.000197,53.23566526313196,10.4015132048496,25.73068,0.66,0.97,163.125002298636,119.0872933266196,5.999999999999979,4.890059363221343,-9999,3963.400140125,0.107635498046875,-0.10699462890625,-0.982818603515625,3963.395103125,-0.00922046461584705,0.01144203046333575,-0.04413417678848049,0.03031002171337605,-0.02658447250723839,0.01402527093887329,0.0272008404135704,0.008151687681674957,0.00377047061920166,XArbitraryZVertical,-0.02203833121207494,0.005821253898505066,-0.004735251495103094,0.9997290617055029,0.08180797100067139,-0.1216313019394875,-0.9891983270645142,0,0,0,-1,-1,2026-05-05T16:12:27.330+02:00,1853,1.428074,0,0,1618.589,0,0,2026-05-05T17:18:23.076+02:00,799687103.1696333,0,0.9099998,100.7542,0
2026-05-05T17:18:23.681+02:00,1777994303.000197,53.23566526313196,10.4015132048496,25.73068,0.66,0.97,163.125002298636,119.0872933266196,5.999999999999979,4.890059363221343,-9999,3963.410213125,0.1083221435546875,-0.114898681640625,-0.986480712890625,3963.405176125,-0.009131643042616242,0.01140781302468995,-0.04383113157716748,0.02562232501804829,-0.01543701253831387,0.009341304190456867,0.0245184600353241,0.01871186494827271,0.007215797901153564,XArbitraryZVertical,-0.02188718873140105,0.005802498637733376,-0.004689627029020027,0.9997326714301958,0.08175902813673019,-0.1219375729560852,-0.9891646504402161,0,0,0,-1,-1,2026-05-05T16:12:27.330+02:00,1853,1.428074,0,0,1618.589,0,0,2026-05-05T17:18:23.076+02:00,799687103.1696333,0,0.9099998,100.7542,0
2026-05-05T17:18:23.691+02:00,1777994303.000197,53.23566526313196,10.4015132048496,25.73068,0.66,0.97,163.125002298636,119.0872933266196,5.999999999999979,4.890059363221343,-9999,3963.420286125,0.10797119140625,-0.1291656494140625,-0.98193359375,3963.415249125,-0.009069209973317971,0.01155133061869421,-0.04361827321420042,0.0106053464114666,0.01184121333062649,0.009608885273337364,0.02591298520565033,0.01019896566867828,0.004492878913879395,XArbitraryZVertical,-0.02178063500440466,0.005873086059384873,-0.004659385543061677,0.9997347083365233,0.08189037442207336,-0.1221526935696602,-0.9891272187232971,0,0,0,-1,-1,2026-05-05T16:12:27.330+02:00,1853,1.428074,0,0,1618.589,0,0,2026-05-05T17:18:23.076+02:00,799687103.1696333,0,0.9099998,100.7542,0
2026-05-05T17:18:23.701+02:00,1777994303.000197,53.23566526313196,10.4015132048496,25.73068,0.66,0.97,163.125002298636,119.0872933266196,5.999999999999979,4.890059363221343,-9999,3963.430359125,0.105072021484375,-0.1300506591796875,-0.9791107177734375,3963.425322125,-0.008990060167709733,0.01185403982089953,-0.04354367057341518,0.007805298548191786,0.01984933950006962,0.01153461635112762,0.02623710781335831,0.0004212334752082825,0.003726840019226074,XArbitraryZVertical,-0.02174287500672303,0.006023375250597249,-0.004622900012220717,0.9997348733679231,0.08217661827802658,-0.1222321465611458,-0.9890936613082886,0,0,0,-1,-1,2026-05-05T16:12:27.330+02:00,1853,1.428074,0,0,1618.589,0,0,2026-05-05T17:18:23.076+02:00,799687103.1696333,0,0.9099998,100.7542,0
2026-05-05T17:18:23.711+02:00,1777994303.000197,53.23566526313196,10.4015132048496,25.73068,0.66,0.97,163.125002298636,119.0872933266196,5.999999999999979,4.890059363221343,-9999,3963.440432125,0.106781005859375,-0.1298828125,-0.9802703857421875,3963.435395125,-0.008838404292530504,0.01225349248869559,-0.04341920031972092,0.01927601359784603,0.03261866047978401,0.02688667550683022,0.02379205822944641,-0.009057924151420593,0.009905099868774414,XArbitraryZVertical,-0.02168020553227543,0.006221133466434775,-0.00455105983430694,0.9997353007561049,0.08254646509885788,-0.1223660260438919,-0.9890463352203369,0,0,0,-1,-1,2026-05-05T16:12:27.330+02:00,1853,1.428074,0,0,1618.589,0,0,2026-05-05T17:18:23.076+02:00,799687103.1696333,0,0.9099998,100.7542,0
2026-05-05T17:18:23.721+02:00,1777994303.000197,53.23566526313196,10.4015132048496,25.73068,0.66,0.97,163.125002298636,119.0872933266196,5.999999999999979,4.890059363221343,-9999,3963.450505125,0.1079254150390625,-0.120361328125,-0.9823760986328125,3963.445468125,-0.008585617553712014,0.01280789255101827,-0.04319318451846186,0.03289009258151054,0.04203799739480019,0.02857032604515553,0.02282809466123581,-0.008099235594272614,0.008032262325286865,XArbitraryZVertical,-0.02156678619266241,0.006495050392932103,-0.004429996687989548,0.9997365558600528,0.08305267244577408,-0.1226075515151024,-0.9889740347862244,0,0,0,-1,-1,2026-05-05T16:12:27.330+02:00,1853,1.428074,0,0,1618.589,0,0,2026-05-05T17:18:23.076+02:00,799687103.1696333,0,0.9099998,100.7542,0
2026-05-05T17:18:23.738+02:00,1777994303.000197,53.23566526313196,10.4015132048496,25.73068,0.66,0.97,163.125002298636,119.0872933266196,5.999999999999979,4.890059363221343,-9999,3963.460578125,0.1131439208984375,-0.12255859375,-0.984893798828125,3963.455541125,-0.008364532154160076,0.01343553994168699,-0.0428971378177445,0.02928715571761131,0.05072682350873947,0.01942902430891991,0.0239076092839241,-0.001732908189296722,0.008204162120819092,XArbitraryZVertical,-0.02141816414743502,0.006805810004170357,-0.004325270726600784,0.9997380843180872,0.08363636583089828,-0.1229161396622658,-0.9888865351676941,0,0,0,-1,-1,2026-05-05T16:12:27.330+02:00,1853,1.428074,0,0,1618.589,0,0,2026-05-05T17:18:23.076+02:00,799687103.1696333,0,0.9099998,100.7542,0
2026-05-05T17:18:23.742+02:00,1777994303.000197,53.23566526313196,10.4015132048496,25.73068,0.66,0.97,163.125002298636,119.0872933266196,5.999999999999979,4.890059363221343,-9999,3963.470651125,0.11065673828125,-0.1185455322265625,-0.9836273193359375,3963.465614125,-0.008196788162721944,0.01418125013603534,-0.04262920015558645,0.02528309263288975,0.05501584708690643,0.01775655895471573,0.02640272676944733,0.002602957189083099,0.003608107566833496,XArbitraryZVertical,-0.02128321769019542,0.007176241916608197,-0.004248468419816142,0.9997387275745128,0.08434558659791946,-0.1231931671500206,-0.988791823387146,0,0,0,-1,-1,2026-05-05T16:12:27.330+02:00,1853,1.428074,0,0,1618.589,0,0,2026-05-05T17:18:23.076+02:00,799687103.1696333,0,0.9099998,100.7542,0
2026-05-05T17:18:23.752+02:00,1777994303.000197,53.23566526313196,10.4015132048496,25.73068,0.66,0.97,163.125002298636,119.0872933266196,5.999999999999979,4.890059363221343,-9999,3963.480724125,0.11346435546875,-0.1194610595703125,-0.985748291015625,3963.475687125,-0.008047535494807904,0.01496075080494695,-0.04244797475094103,0.0261398833245039,0.06036028265953064,0.02111287415027618,0.02698448300361633,0.002853885293006897,0.005626261234283447,XArbitraryZVertical,-0.02119153460800972,0.007563951132304334,-0.004181486457813226,0.9997381553912318,0.08509134501218796,-0.1233830600976944,-0.9887042641639709,0,0,0,-1,-1,2026-05-05T16:12:27.330+02:00,1853,1.428074,0,0,1618.589,0,0,2026-05-05T17:18:23.076+02:00,799687103.1696333,0,0.9099998,100.7542,0
2026-05-05T17:18:23.762+02:00,1777994303.000197,53.23566526313196,10.4015132048496,25.73068,0.66,0.97,163.125002298636,119.0872933266196,5.999999999999979,4.890059363221343,-9999,3963.490797125,0.1156463623046875,-0.1201934814453125,-0.977142333984375,3963.485761125,-0.00780572665609205,0.01582304811782113,-0.04240721375346698,0.01260969508439302,0.07425079494714737,0.03247525170445442,0.02411206066608429,0.005459405481815338,0.003321051597595215,XArbitraryZVertical,-0.02117032258814168,0.00799234857866239,-0.004069591190428445,0.9997356648984389,0.0859038233757019,-0.1234403625130653,-0.9886268377304077,0,0,0,-1,-1,2026-05-05T16:12:27.330+02:00,1853,1.428074,0,0,1618.589,0,0,2026-05-05T17:18:23.076+02:00,799687103.1696333,0,0.9099998,100.7542,0
2026-05-05T17:18:23.772+02:00,1777994303.000197,53.23566526313196,10.4015132048496,25.73068,0.66,0.97,163.125002298636,119.0872933266196,5.999999999999979,4.890059363221343,-9999,3963.500870125,0.1143035888671875,-0.1325225830078125,-0.9735565185546875,3963.495834125,-0.007442182681912293,0.01675974580482367,-0.04247066826427345,-0.005043973680585623,0.06735000759363174,0.04832838103175163,0.02934950590133667,0.004048816859722137,0.006210267543792725,XArbitraryZVertical,-0.0212016700566565,0.008456836909885008,-0.003898045725673615,0.9997318897430202,0.08676990121603012,-0.1234030649065971,-0.9885558485984802,0,0,0,-1,-1,2026-05-05T16:12:27.330+02:00,1853,1.428074,0,0,1618.589,0,0,2026-05-05T17:18:23.076+02:00,799687103.1696333,0,0.9099998,100.7542,0
2026-05-05T17:18:23.782+02:00,1777994303.000197,53.23566526313196,10.4015132048496,25.73068,0.66,0.97,163.125002298636,119.0872933266196,5.999999999999979,4.890059363221343,-9999,3963.510943125,0.119415283203125,-0.1336669921875,-0.97589111328125,3963.505907125,-0.006921925121978255,0.01762555938588641,-0.04260638261461405,-0.02397292479872704,0.06725173443555832,0.0544978603720665,0.02653463929891586,-0.002076275646686554,0.01460796594619751,XArbitraryZVertical,-0.02127013047189991,0.008884333556645016,-0.003647758279418515,0.999727703830114,0.08754009008407593,-0.1233052015304565,-0.98850017786026,0,0,0,-1,-1,2026-05-05T16:12:27.330+02:00,1853,1.428074,0,0,1618.589,0,0,2026-05-05T17:18:23.076+02:00,799687103.1696333,0,0.9099998,100.7542,0
