loggingTime(txt),locationTimestamp_since1970(s),locationLatitude(WGS84),locationLongitude(WGS84),locationAltitude(m),locationSpeed(m/s),locationSpeedAccuracy(m/s),locationCourse(°),locationCourseAccuracy(°),locationVerticalAccuracy(m),locationHorizontalAccuracy(m),locationFloor(Z),accelerometerTimestamp_sinceReboot(s),accelerometerAccelerationX(G),accelerometerAccelerationY(G),accelerometerAccelerationZ(G),motionTimestamp_sinceReboot(s),motionYaw(rad),motionRoll(rad),motionPitch(rad),motionRotationRateX(rad/s),motionRotationRateY(rad/s),motionRotationRateZ(rad/s),motionUserAccelerationX(G),motionUserAccelerationY(G),motionUserAccelerationZ(G),motionAttitudeReferenceFrame(txt),motionQuaternionX(R),motionQuaternionY(R),motionQuaternionZ(R),motionQuaternionW(R),motionGravityX(G),motionGravityY(G),motionGravityZ(G),motionMagneticFieldX(µT),motionMagneticFieldY(µT),motionMagneticFieldZ(µT),motionHeading(°),motionMagneticFieldCalibrationAccuracy(Z),activityTimestamp_sinceReboot(s),activity(txt),activityActivityConfidence(Z),activityActivityStartDate(txt),pedometerStartDate(txt),pedometerNumberofSteps(N),pedometerAverageActivePace(s/m),pedometerCurrentPace(s/m),pedometerCurrentCadence(steps/s),pedometerDistance(m),pedometerFloorAscended(N),pedometerFloorDescended(N),pedometerEndDate(txt),altimeterTimestamp_sinceReboot(s),altimeterReset(bool),altimeterRelativeAltitude(m),altimeterPressure(kPa),batteryState(N),batteryLevel(R),label
2026-05-05T16:59:29.907+02:00,1777993168.999466,53.23565803650313,10.40152943729329,25.23766,0.4196503,1.487839,-1,-1,5.582828087996303,2.000234277390156,-9999,3078.5426275,-0.05767822265625,-0.64447021484375,-0.6565704345703125,3078.5325545,1.128085746738953,-0.126841023127152,0.2837675995997223,-0.1407685130834579,0.103605754673481,0.1138531342148781,0.09620320051908493,-0.02796876430511475,0.01427114009857178,XArbitraryZVertical,-0.1528058000392301,-0.02242328362610873,-0.5205971927374002,-0.8397179740430583,-0.1045955568552017,-0.6106115579605103,-0.7849925756454468,0,0,0,-1,-1,3066.798037375,unknown,2,2026-05-05T16:59:18.138+02:00,2026-05-05T16:12:27.330+02:00,1618,1.315207,0,0,1418.052,0,0,2026-05-05T16:59:25.874+02:00,799685968.5403725,0,-0.3500004,100.769,1,0.7,0
2026-05-05T16:59:29.908+02:00,1777993168.999466,53.23565803650313,10.40152943729329,25.23766,0.4196503,1.487839,-1,-1,5.582828087996303,2.000234277390156,-9999,3078.5526995,-0.0548248291015625,-0.65521240234375,-0.6563873291015625,3078.5426275,0.001027592216001765,0.001158902319873347,-0.002309749048953116,-0.3149101138114929,0.1031199917197227,0.09499715268611908,0.0721917599439621,-0.02186518907546997,0.0734788179397583,XArbitraryZVertical,-0.00115517150846315,0.0005788572286047651,0.0005131264047224229,0.9999991482457273,-0.1043115332722664,-0.60868901014328,-0.7865219712257385,0,0,0,-1,-1,3066.798037375,unknown,2,2026-05-05T16:59:18.138+02:00,2026-05-05T16:12:27.330+02:00,1618,1.315207,0,0,1418.052,0,0,2026-05-05T16:59:25.874+02:00,799685968.5403725,0,-0.3500004,100.769,1,0.7,0
2026-05-05T16:59:29.909+02:00,1777993168.999466,53.23565803650313,10.40152943729329,25.23766,0.4196503,1.487839,-1,-1,5.582828087996303,2.000234277390156,-9999,3078.5627725,-0.0409088134765625,-0.630584716796875,-0.72137451171875,3078.5526995,0.001987982078989276,0.002278942124793392,-0.005946229311108176,-0.396082729101181,0.1220526695251465,0.1085009723901749,0.04633350670337677,-0.03874635696411133,0.1322769522666931,XArbitraryZVertical,-0.002974239335759245,0.001136509913669242,0.0009905980139701378,0.9999944940212366,-0.1040117591619492,-0.6057238578796387,-0.7888473868370056,0,0,0,-1,-1,3066.798037375,unknown,2,2026-05-05T16:59:18.138+02:00,2026-05-05T16:12:27.330+02:00,1618,1.315207,0,0,1418.052,0,0,2026-05-05T16:59:25.874+02:00,799685968.5403725,0,-0.3500004,100.769,1,0.7,0
2026-05-05T16:59:29.924+02:00,1777993168.999466,53.23565803650313,10.40152943729329,25.23766,0.4196503,1.487839,-1,-1,5.582828087996303,2.000234277390156,-9999,3078.5728445,-0.0360260009765625,-0.625091552734375,-0.780853271484375,3078.5627725,0.003130324693130132,0.003906763451555825,-0.00998793589699121,-0.3955502212047577,0.1884644627571106,0.1187073364853859,0.04859034717082977,-0.05280208587646484,0.1350715160369873,XArbitraryZVertical,-0.004996988613554482,0.001945537315952735,0.001555384060224821,0.9999844628404453,-0.1034151986241341,-0.6024103164672852,-0.7914588451385498,0,0,0,-1,-1,3066.798037375,unknown,2,2026-05-05T16:59:18.138+02:00,2026-05-05T16:12:27.330+02:00,1618,1.315207,0,0,1418.052,0,0,2026-05-05T16:59:25.874+02:00,799685968.5403725,0,-0.3500004,100.769,1,0.7,0
2026-05-05T16:59:29.927+02:00,1777993168.999466,53.23565803650313,10.40152943729329,25.23766,0.4196503,1.487839,-1,-1,5.582828087996303,2.000234277390156,-9999,3078.5829175,-0.0367889404296875,-0.6332244873046875,-0.826202392578125,3078.5728445,0.004157489947443159,0.005967603133673068,-0.01354342787270274,-0.3029113709926605,0.2050993591547012,0.0856468603014946,0.06148912757635117,-0.03110045194625854,0.07243484258651733,XArbitraryZVertical,-0.006777819374681571,0.002969645604074218,0.002058481208704014,0.999970566777816,-0.1023979559540749,-0.5994842648506165,-0.7938093543052673,0,0,0,-1,-1,3066.798037375,unknown,2,2026-05-05T16:59:18.138+02:00,2026-05-05T16:12:27.330+02:00,1618,1.315207,0,0,1418.052,0,0,2026-05-05T16:59:25.874+02:00,799685968.5403725,0,-0.3500004,100.769,1,0.7,0
2026-05-05T16:59:29.938+02:00,1777993168.999466,53.23565803650313,10.40152943729329,25.23766,0.4196503,1.487839,-1,-1,5.582828087996303,2.000234277390156,-9999,3078.5929905,-0.029266357421875,-0.6194610595703125,-0.8580322265625,3078.5829175,0.004814610419564555,0.008066241675118687,-0.016004496025823,-0.1880943328142166,0.196935161948204,0.04756438732147217,0.06509483605623245,-0.02763170003890991,0.0146443247795105,XArbitraryZVertical,-0.008011782857987797,0.004013705570624532,0.002374932697056393,0.9999570406149251,-0.1011208519339561,-0.5974597930908203,-0.7954975366592407,0,0,0,-1,-1,3066.798037375,unknown,2,2026-05-05T16:59:18.138+02:00,2026-05-05T16:12:27.330+02:00,1618,1.315207,0,0,1418.052,0,0,2026-05-05T16:59:25.874+02:00,799685968.5403725,0,-0.3500004,100.769,1,0.7,0
2026-05-05T16:59:29.948+02:00,1777993168.999466,53.23565803650313,10.40152943729329,25.23766,0.4196503,1.487839,-1,-1,5.582828087996303,2.000234277390156,-9999,3078.6030625,-0.0289764404296875,-0.60699462890625,-0.8819122314453125,3078.5929905,0.005050344610374411,0.009953536257411249,-0.01713558484742021,-0.03059764392673969,0.1725848168134689,0.008143747225403786,0.06296749413013458,-0.03668922185897827,-0.02983921766281128,XArbitraryZVertical,-0.008580120207947359,0.004954914089910066,0.002482406406291717,0.9999479076516785,-0.09975644201040268,-0.5965352654457092,-0.7963631749153137,0,0,0,-1,-1,3066.798037375,unknown,2,2026-05-05T16:59:18.138+02:00,2026-05-05T16:12:27.330+02:00,1618,1.315207,0,0,1418.052,0,0,2026-05-05T16:59:25.874+02:00,799685968.5403725,0,-0.3500004,100.769,1,0.7,0
2026-05-05T16:59:29.958+02:00,1777993168.999466,53.23565803650313,10.40152943729329,25.23766,0.4196503,1.487839,-1,-1,5.582828087996303,2.000234277390156,-9999,3078.6131355,-0.037078857421875,-0.607330322265625,-0.8667144775390625,3078.6030625,0.004734581857628158,0.01152490945398851,-0.016532585480639,0.140007272362709,0.135612964630127,-0.06657157093286514,0.06905006617307663,-0.02241230010986328,-0.06187474727630615,XArbitraryZVertical,-0.008279678048785042,0.005742640974034179,0.002319535069990307,0.9999466631232268,-0.09831645339727402,-0.5970487594604492,-0.7961574196815491,0,0,0,-1,-1,3066.798037375,unknown,2,2026-05-05T16:59:18.138+02:00,2026-05-05T16:12:27.330+02:00,1618,1.315207,0,0,1418.052,0,0,2026-05-05T16:59:25.874+02:00,799685968.5403725,0,-0.3500004,100.769,1,0.7,0
2026-05-05T16:59:29.968+02:00,1777993168.999466,53.23565803650313,10.40152943729329,25.23766,0.4196503,1.487839,-1,-1,5.582828087996303,2.000234277390156,-9999,3078.6232075,-0.015594482421875,-0.60040283203125,-0.7893829345703125,3078.6131355,0.003897998680584317,0.0131083638803799,-0.01510589757469889,0.1181339398026466,0.1832078993320465,-0.07431071996688843,0.06757994741201401,-0.008722603321075439,-0.08645796775817871,XArbitraryZVertical,-0.00756547307959652,0.006539214572809523,0.001899397945163211,0.999948322182339,-0.0965564101934433,-0.5982720851898193,-0.7954542636871338,0,0,0,-1,-1,3066.798037375,unknown,2,2026-05-05T16:59:18.138+02:00,2026-05-05T16:12:27.330+02:00,1618,1.315207,0,0,1418.052,0,0,2026-05-05T16:59:25.874+02:00,799685968.5403725,0,-0.3500004,100.769,1,0.7,0
2026-05-05T16:59:29.978+02:00,1777993168.999466,53.23565803650313,10.40152943729329,25.23766,0.4196503,1.487839,-1,-1,5.582828087996303,2.000234277390156,-9999,3078.6332805,0.024505615234375,-0.621551513671875,-0.7418670654296875,3078.6232075,0.003385496445167344,0.01531327077917516,-0.0142047447483378,0.06255334615707397,0.2416608333587646,-0.01494752429425716,0.05741894990205765,-0.008288145065307617,-0.07159262895584106,XArbitraryZVertical,-0.007115053829772812,0.00764433360569291,0.001638275729228907,0.9999442346344183,-0.09449781477451324,-0.5990421772003174,-0.7951217889785767,0,0,0,-1,-1,3066.798037375,unknown,2,2026-05-05T16:59:18.138+02:00,2026-05-05T16:12:27.330+02:00,1618,1.315207,0,0,1418.052,0,0,2026-05-05T16:59:25.874+02:00,799685968.5403725,0,-0.3500004,100.769,1,0.7,0
2026-05-05T16:59:29.988+02:00,1777993168.999466,53.23565803650313,10.40152943729329,25.23766,0.4196503,1.487839,-1,-1,5.582828087996303,2.000234277390156,-9999,3078.6433535,0.0262298583984375,-0.64825439453125,-0.744873046875,3078.6332805,0.003406495804935523,0.01747826227235031,-0.01378505089244544,0.01283744908869267,0.1585667431354523,0.02084429562091827,0.07719884812831879,-0.00102996826171875,0.005690455436706543,XArbitraryZVertical,-0.006907081914682013,0.008727060356524294,0.001642908203107297,0.9999367312585036,-0.09279335290193558,-0.5993728041648865,-0.7950733304023743,0,0,0,-1,-1,3066.798037375,unknown,2,2026-05-05T16:59:18.138+02:00,2026-05-05T16:12:27.330+02:00,1618,1.315207,0,0,1418.052,0,0,2026-05-05T16:59:25.874+02:00,799685968.5403725,0,-0.3500004,100.769,1,0.7,0
2026-05-05T16:59:29.998+02:00,1777993168.999466,53.23565803650313,10.40152943729329,25.23766,0.4196503,1.487839,-1,-1,5.582828087996303,2.000234277390156,-9999,3078.6534255,0.01446533203125,-0.6378326416015625,-0.7569732666015625,3078.6433535,0.003647065016127859,0.01840213902463431,-0.01397666389393143,-0.05375974252820015,0.02515142597258091,0.03259216621518135,0.1167090237140656,-0.02235639095306396,0.05340886116027832,XArbitraryZVertical,-0.007004745424780543,0.009187956909853487,0.001759111190732269,0.9999317087423113,-0.09220343828201294,-0.599195122718811,-0.795275866985321,0,0,0,-1,-1,3066.798037375,unknown,2,2026-05-05T16:59:18.138+02:00,2026-05-05T16:12:27.330+02:00,1618,1.315207,0,0,1418.052,0,0,2026-05-05T16:59:25.874+02:00,799685968.5403725,0,-0.3500004,100.769,1,0.7,0
2026-05-05T16:59:30.008+02:00,1777993168.999466,53.23565803650313,10.40152943729329,25.23766,0.4196503,1.487839,-1,-1,5.582828087996303,2.000234277390156,-9999,3078.6634985,-0.0169219970703125,-0.6259307861328125,-0.7745513916015625,3078.6534255,0.003876012509396777,0.01848395887485603,-0.01463611559019781,-0.07534439116716385,-0.007792409509420395,0.01626832038164139,0.1185005977749825,-0.0496070384979248,0.05080747604370117,XArbitraryZVertical,-0.007335575899994148,0.009227400631096609,0.00187023860259975,0.9999288487675394,-0.09227076917886734,-0.5986473560333252,-0.7956805229187012,0,0,0,-1,-1,3066.798037375,unknown,2,2026-05-05T16:59:18.138+02:00,2026-05-05T16:12:27.330+02:00,1618,1.315207,0,0,1418.052,0,0,2026-05-05T16:59:25.874+02:00,799685968.5403725,0,-0.3500004,100.769,1,0.7,0
2026-05-05T16:59:30.018+02:00,1777993168.999466,53.23565803650313,10.40152943729329,25.23766,0.4196503,1.487839,-1,-1,5.582828087996303,2.000234277390156,-9999,3078.6735705,-0.0416259765625,-0.6202392578125,-0.790191650390625,3078.6634985,0.00396346843690722,0.01857725123326146,-0.01530600797002235,-0.06095043569803238,0.01532276347279549,0.002828010823577642,0.1067077741026878,-0.03972649574279785,0.03911745548248291,XArbitraryZVertical,-0.007670989881030896,0.009273035192359435,0.001910505136866821,0.9999258860136082,-0.09224246442317963,-0.5981061458587646,-0.7960907220840454,0,0,0,-1,-1,3066.798037375,unknown,2,2026-05-05T16:59:18.138+02:00,2026-05-05T16:12:27.330+02:00,1618,1.315207,0,0,1418.052,0,0,2026-05-05T16:59:25.874+02:00,799685968.5403725,0,-0.3500004,100.769,1,0.7,0
2026-05-05T16:59:30.028+02:00,1777993168.999466,53.23565803650313,10.40152943729329,25.23766,0.4196503,1.487839,-1,-1,5.582828087996303,2.000234277390156,-9999,3078.6836435,-0.037567138671875,-0.60577392578125,-0.7865753173828125,3078.6735705,0.003874319675970207,0.01871707211849995,-0.01584110771556108,-0.04624099656939507,-0.003543868428096175,-0.01203908585011959,0.07514874637126923,-0.02824026346206665,0.02187126874923706,XArbitraryZVertical,-0.007938236877234444,0.009342745112579529,0.001862890114771177,0.9999231853783423,-0.09207075834274292,-0.5976905226707458,-0.7964226603507996,0,0,0,-1,-1,3066.798037375,unknown,2,2026-05-05T16:59:18.138+02:00,2026-05-05T16:12:27.330+02:00,1618,1.315207,0,0,1418.052,0,0,2026-05-05T16:59:25.874+02:00,799685968.5403725,0,-0.3500004,100.769,1,0.7,0
2026-05-05T16:59:30.038+02:00,1777993168.999466,53.23565803650313,10.40152943729329,25.23766,0.4196503,1.487839,-1,-1,5.582828087996303,2.000234277390156,-9999,3078.6937165,-0.032958984375,-0.6016998291015625,-0.7843017578125,3078.6836435,0.003634199683263002,0.01845480412012047,-0.01604419062545532,0.003880385309457779,-0.05037102848291397,-0.0288652703166008,0.0505048856139183,-0.02268445491790771,0.006325960159301758,XArbitraryZVertical,-0.00803842063096707,0.00921238258084681,0.001742941844824696,0.9999237616319245,-0.0921308770775795,-0.5975547432899475,-0.796517550945282,0,0,0,-1,-1,3066.798037375,unknown,2,2026-05-05T16:59:18.138+02:00,2026-05-05T16:12:27.330+02:00,1618,1.315207,0,0,1418.052,0,0,2026-05-05T16:59:25.874+02:00,799685968.5403725,0,-0.3500004,100.769,1,0.7,0
2026-05-05T16:59:30.048+02:00,1777993168.999466,53.23565803650313,10.40152943729329,25.23766,0.4196503,1.487839,-1,-1,5.582828087996303,2.000234277390156,-9999,3078.7037885,-0.03485107421875,-0.6033935546875,-0.7787017822265625,3078.6937165,0.003180376896738556,0.01794155126884269,-0.01587444990710307,0.0131385987624526,-0.0536389946937561,-0.04745307192206383,0.05469744652509689,-0.008035778999328613,0.009789168834686279,XArbitraryZVertical,-0.007951075925019554,0.008957739397236883,0.001518872284893387,0.9999272216513596,-0.09226460009813309,-0.5977381467819214,-0.7963644862174988,0,0,0,-1,-1,3066.798037375,unknown,2,2026-05-05T16:59:18.138+02:00,2026-05-05T16:12:27.330+02:00,1618,1.315207,0,0,1418.052,0,0,2026-05-05T16:59:25.874+02:00,799685968.5403725,0,-0.3500004,100.769,1,0.7,0
2026-05-05T16:59:30.058+02:00,1777993168.999466,53.23565803650313,10.40152943729329,25.23766,0.4196503,1.487839,-1,-1,5.582828087996303,2.000234277390156,-9999,3078.7138615,-0.0236358642578125,-0.601470947265625,-0.7716217041015625,3078.7037885,0.002686268844465759,0.01757042320175825,-0.01592415161716039,-0.02100925147533417,-0.0222693532705307,-0.04253221303224564,0.05929908156394958,-0.003948628902435303,0.01205366849899292,XArbitraryZVertical,-0.007973475601166638,0.00877411767866048,0.001273092677398893,0.9999290114633401,-0.09225810319185257,-0.5977512001991272,-0.7963554263114929,0,0,0,-1,-1,3066.798037375,unknown,2,2026-05-05T16:59:18.138+02:00,2026-05-05T16:12:27.330+02:00,1618,1.315207,0,0,1418.052,0,0,2026-05-05T16:59:25.874+02:00,799685968.5403725,0,-0.3500004,100.769,1,0.7,0
2026-05-05T16:59:30.068+02:00,1777993168.999466,53.23565803650313,10.40152943729329,25.23766,0.4196503,1.487839,-1,-1,5.582828087996303,2.000234277390156,-9999,3078.7239335,-0.0280609130859375,-0.6087646484375,-0.7739715576171875,3078.7138615,0.002233780673137227,0.01768365884546875,-0.01607964717851643,-0.01131987292319536,0.03960706293582916,-0.04415301233530045,0.05703902989625931,-0.005717933177947998,0.01775288581848145,XArbitraryZVertical,-0.008049291587759921,0.008832442685699047,0.00104572522500483,0.9999281747876519,-0.09189014136791229,-0.5976756811141968,-0.7964546680450439,0,0,0,-1,-1,3066.798037375,unknown,2,2026-05-05T16:59:18.138+02:00,2026-05-05T16:12:27.330+02:00,1618,1.315207,0,0,1418.052,0,0,2026-05-05T16:59:25.874+02:00,799685968.5403725,0,-0.3500004,100.769,1,0.7,0
2026-05-05T16:59:30.079+02:00,1777993168.999466,53.23565803650313,10.40152943729329,25.23766,0.4196503,1.487839,-1,-1,5.582828087996303,2.000234277390156,-9999,3078.7340065,-0.0273895263671875,-0.6081695556640625,-0.774810791015625,3078.7239335,0.001745195530675298,0.01839885623910468,-0.01630168236826358,-0.04495926946401596,0.08712558448314667,-0.04780886694788933,0.06738396733999252,-0.003920137882232666,0.02502655982971191,XArbitraryZVertical,-0.008158429539197015,0.009191876787539681,0.0007975505523861838,0.9999242046280971,-0.09101983904838562,-0.5975508093833923,-0.7966482639312744,0,0,0,-1,-1,3066.798037375,unknown,2,2026-05-05T16:59:18.138+02:00,2026-05-05T16:12:27.330+02:00,1618,1.315207,0,0,1418.052,0,0,2026-05-05T16:59:25.874+02:00,799685968.5403725,0,-0.3500004,100.769,1,0.7,0
2026-05-05T16:59:30.089+02:00,1777993168.999466,53.23565803650313,10.40152943729329,25.23766,0.4196503,1.487839,-1,-1,5.582828087996303,2.000234277390156,-9999,3078.7440795,-0.0094451904296875,-0.60076904296875,-0.77471923828125,3078.7340065,0.001332882763353986,0.01929700101857839,-0.01701958157216365,-0.09256647527217865,0.07832196354866028,-0.02797684073448181,0.06198343634605408,-0.01174110174179077,0.02318269014358521,XArbitraryZVertical,-0.008515719412340609,0.009642327800139678,0.0005842817198575799,0.9999171394136618,-0.09004436433315277,-0.5970235466957092,-0.7971542477607727,0,0,0,-1,-1,3066.798037375,unknown,2,2026-05-05T16:59:18.138+02:00,2026-05-05T16:12:27.330+02:00,1618,1.315207,0,0,1418.052,0,0,2026-05-05T16:59:25.874+02:00,799685968.5403725,0,-0.3500004,100.769,1,0.7,0
2026-05-05T16:59:30.099+02:00,1777993168.999466,53.23565803650313,10.40152943729329,25.23766,0.4196503,1.487839,-1,-1,5.582828087996303,2.000234277390156,-9999,3078.7541515,-0.0054931640625,-0.605133056640625,-0.797210693359375,3078.7440795,0.00115165502764229,0.01989768837660129,-0.01798927561310965,-0.09690923243761063,0.03219149261713028,-0.005743706133216619,0.06205381453037262,-0.01189833879470825,0.02297401428222656,XArbitraryZVertical,-0.008999797789563646,0.009943096281575079,0.0004862921197913294,0.9999100137967424,-0.08944337069988251,-0.5962712168693542,-0.7977848052978516,0,0,0,-1,-1,3066.798037375,unknown,2,2026-05-05T16:59:18.138+02:00,2026-05-05T16:12:27.330+02:00,1618,1.315207,0,0,1418.052,0,0,2026-05-05T16:59:25.874+02:00,799685968.5403725,0,-0.3500004,100.769,1,0.7,0
2026-05-05T16:59:30.109+02:00,1777993168.999466,53.23565803650313,10.40152943729329,25.23766,0.4196503,1.487839,-1,-1,5.582828087996303,2.000234277390156,-9999,3078.7642245,-0.0179901123046875,-0.607513427734375,-0.8160552978515625,3078.7541515,0.001137210002609747,0.02013753450716291,-0.01885939348070016,-0.07770757377147675,0.01090085040777922,0.005349424667656422,0.07978756725788116,-0.005189001560211182,0.02360522747039795,XArbitraryZVertical,-0.009434801247254983,0.01006278532581836,0.0004736084434361211,0.9999048560624159,-0.08923277258872986,-0.5955800414085388,-0.7983244657516479,0,0,0,-1,-1,3066.798037375,unknown,2,2026-05-05T16:59:18.138+02:00,2026-05-05T16:12:27.330+02:00,1618,1.315207,0,0,1418.052,0,0,2026-05-05T16:59:25.874+02:00,799685968.5403725,0,-0.3500004,100.769,1,0.7,0
2026-05-05T16:59:30.120+02:00,1777993168.999466,53.23565803650313,10.40152943729329,25.23766,0.4196503,1.487839,-1,-1,5.582828087996303,2.000234277390156,-9999,3078.7742965,-0.0262451171875,-0.600860595703125,-0.8191375732421875,3078.7642245,0.001138406289586838,0.02031373211504726,-0.01939317346577469,-0.0290895476937294,0.01690494641661644,-0.001399158500134945,0.08359317481517792,-0.009978353977203369,0.001447319984436035,XArbitraryZVertical,-0.009701713703360827,0.01015069301881127,0.0004706633077739282,0.9999013363097675,-0.08908636868000031,-0.5951546430587769,-0.7986579537391663,0,0,0,-1,-1,3066.798037375,unknown,2,2026-05-05T16:59:18.138+02:00,2026-05-05T16:12:27.330+02:00,1618,1.315207,0,0,1418.052,0,0,2026-05-05T16:59:25.874+02:00,799685968.5403725,0,-0.3500004,100.769,1,0.7,0
2026-05-05T16:59:30.137+02:00,1777993168.999466,53.23565803650313,10.40152943729329,25.23766,0.4196503,1.487839,-1,-1,5.582828087996303,2.000234277390156,-9999,3078.784369166667,-0.021514892578125,-0.59820556640625,-0.8108062744140625,3078.7742965,0.001020489003693734,0.02054652822544364,-0.01944564732564236,0.01217719726264477,0.02314473316073418,-0.01804737746715546,0.07083770632743835,-0.01238811016082764,-0.01734662055969238,XArbitraryZVertical,-0.009727396950829486,0.01026763504858443,0.0004103116306643661,0.9998999629514813,-0.08882783353328705,-0.5951253175735474,-0.7987086176872253,0,0,0,-1,-1,3066.798037375,unknown,2,2026-05-05T16:59:18.138+02:00,2026-05-05T16:12:27.330+02:00,1618,1.315207,0,0,1418.052,0,0,2026-05-05T16:59:25.874+02:00,799685968.5403725,0,-0.3500004,100.769,1,0.7,0
2026-05-05T16:59:30.139+02:00,1777993168.999466,53.23565803650313,10.40152943729329,25.23766,0.4196503,1.487839,-1,-1,5.582828087996303,2.000234277390156,-9999,3078.794442166667,-0.0092620849609375,-0.598175048828125,-0.7864990234375,3078.784369166667,0.0007915328942412908,0.02105728393147434,-0.01937816492314518,-0.007605455815792084,0.07177671790122986,-0.01835869997739792,0.06203579902648926,-0.005657494068145752,-0.02042627334594727,XArbitraryZVertical,-0.009692559297568668,0.01052411765188404,0.0002937165302827385,0.9998976417089667,-0.08828095346689224,-0.5952031016349792,-0.7987112998962402,0,0,0,-1,-1,3066.798037375,unknown,2,2026-05-05T16:59:18.138+02:00,2026-05-05T16:12:27.330+02:00,1618,1.315207,0,0,1418.052,0,0,2026-05-05T16:59:25.874+02:00,799685968.5403725,0,-0.3500004,100.769,1,0.7,0
2026-05-05T16:59:30.149+02:00,1777993168.999466,53.23565803650313,10.40152943729329,25.23766,0.4196503,1.487839,-1,-1,5.582828087996303,2.000234277390156,-9999,3078.804514166667,0.0058746337890625,-0.6121673583984375,-0.7794647216796875,3078.794442166667,0.0006667300125808159,0.02193569906423987,-0.01956088904511511,-0.02380413189530373,0.08652210980653763,0.001426721923053265,0.06598585098981857,-0.00313490629196167,-0.01191043853759766,XArbitraryZVertical,-0.009783355170427083,0.01096384349486154,0.0002260624282614854,0.999892078387954,-0.08750075846910477,-0.5950706601142883,-0.7988958358764648,0,0,0,-1,-1,3066.798037375,unknown,2,2026-05-05T16:59:18.138+02:00,2026-05-05T16:12:27.330+02:00,1618,1.315207,0,0,1418.052,0,0,2026-05-05T16:59:25.874+02:00,799685968.5403725,0,-0.3500004,100.769,1,0.7,0
2026-05-05T16:59:30.159+02:00,1777993168.999466,53.23565803650313,10.40152943729329,25.23766,0.4196503,1.487839,-1,-1,5.582828087996303,2.000234277390156,-9999,3078.814587166667,0.000518798828125,-0.622100830078125,-0.786865234375,3078.804514166667,0.000649537644832372,0.02265083310128381,-0.01969981662646371,-0.01074100751429796,0.04617521911859512,-0.003379018977284431,0.07765494287014008,-0.003213226795196533,0.01254159212112427,XArbitraryZVertical,-0.009852793488392674,0.01132142435916607,0.0002131821162094484,0.9998874700639965,-0.08691706508398056,-0.5949618220329285,-0.7990406155586243,0,0,0,-1,-1,3066.798037375,unknown,2,2026-05-05T16:59:18.138+02:00,2026-05-05T16:12:27.330+02:00,1618,1.315207,0,0,1418.052,0,0,2026-05-05T16:59:25.874+02:00,799685968.5403725,0,-0.3500004,100.769,1,0.7,0
2026-05-05T16:59:30.169+02:00,1777993168.999466,53.23565803650313,10.40152943729329,25.23766,0.4196503,1.487839,-1,-1,5.582828087996303,2.000234277390156,-9999,3078.824659166667,-0.0191192626953125,-0.608428955078125,-0.786529541015625,3078.814587166667,0.0004380144653525646,0.02292125513919468,-0.01988493430035271,-0.02750427648425102,0.001412274548783898,-0.03476543724536896,0.09244394302368164,-0.01733088493347168,0.01970696449279785,XArbitraryZVertical,-0.009944159136289692,0.01145763173791728,0.000105039495669342,0.9998849882172418,-0.08656932413578033,-0.5948364734649658,-0.7991716861724854,0,0,0,-1,-1,3066.798037375,unknown,2,2026-05-05T16:59:18.138+02:00,2026-05-05T16:12:27.330+02:00,1618,1.315207,0,0,1418.052,0,0,2026-05-05T16:59:25.874+02:00,799685968.5403725,0,-0.3500004,100.769,1,0.7,0
2026-05-05T16:59:30.179+02:00,1777993168.999466,53.23565803650313,10.40152943729329,25.23766,0.4196503,1.487839,-1,-1,5.582828087996303,2.000234277390156,-9999,3078.834732166667,-0.0220184326171875,-0.602508544921875,-0.776611328125,3078.824659166667,-1.77586019981399e-05,0.02282513464759413,-0.02019667510307949,-0.03449108079075813,-0.02093990333378315,-0.04814336076378822,0.08688245713710785,-0.02746516466140747,0.01247811317443848,XArbitraryZVertical,-0.01009740631925381,0.01141182661514524,-0.0001241217437936402,0.9998839565616178,-0.08636366575956345,-0.5946356654167175,-0.7993432879447937,0,0,0,-1,-1,3066.798037375,unknown,2,2026-05-05T16:59:18.138+02:00,2026-05-05T16:12:27.330+02:00,1618,1.315207,0,0,1418.052,0,0,2026-05-05T16:59:25.874+02:00,799685968.5403725,0,-0.3500004,100.769,1,0.7,0
2026-05-05T16:59:30.189+02:00,1777993168.999466,53.23565803650313,10.40152943729329,25.23766,0.4196503,1.487839,-1,-1,5.582828087996303,2.000234277390156,-9999,3078.844805166667,-0.018280029296875,-0.6127471923828125,-0.76812744140625,3078.834732166667,-0.0005823576128276069,0.02271726472954095,-0.02058643807976223,-0.04406008496880531,-0.003421895671635866,-0.05817895010113716,0.06698063760995865,-0.01404505968093872,0.01302945613861084,XArbitraryZVertical,-0.01028906482688816,0.01136078187980814,-0.0004080568471046014,0.9998825293371716,-0.08609992265701294,-0.5943838953971863,-0.7995589971542358,0,0,0,-1,-1,3066.798037375,unknown,2,2026-05-05T16:59:18.138+02:00,2026-05-05T16:12:27.330+02:00,1618,1.315207,0,0,1418.052,0,0,2026-05-05T16:59:25.874+02:00,799685968.5403725,0,-0.3500004,100.769,1,0.7,0
2026-05-05T16:59:30.199+02:00,1777993168.999466,53.23565803650313,10.40152943729329,25.23766,0.4196503,1.487839,-1,-1,5.582828087996303,2.000234277390156,-9999,3078.854877166667,-0.0177154541015625,-0.61199951171875,-0.78094482421875,3078.844805166667,-0.001225190537978478,0.02287004533581489,-0.0210403375676276,-0.0456809364259243,0.02585556544363499,-0.05896098911762238,0.06356063485145569,-0.00841975212097168,0.02322286367416382,XArbitraryZVertical,-0.01051227917694962,0.0114405812089661,-0.0007328146682845064,0.9998791501422505,-0.08557909727096558,-0.5940887928009033,-0.7998341917991638,0,0,0,-1,-1,3066.798037375,unknown,2,2026-05-05T16:59:18.138+02:00,2026-05-05T16:12:27.330+02:00,1618,1.315207,0,0,1418.052,0,0,2026-05-05T16:59:25.874+02:00,799685968.5403725,0,-0.3500004,100.769,1,0.7,0
2026-05-05T16:59:30.209+02:00,1777993168.999466,53.23565803650313,10.40152943729329,25.23766,0.4196503,1.487839,-1,-1,5.582828087996303,2.000234277390156,-9999,3078.864950166667,0.00262451171875,-0.6075439453125,-0.7927093505859375,3078.854877166667,-0.00177092587583013,0.02333339799958034,-0.02146940491463683,-0.03694550320506096,0.05521318688988686,-0.0441167950630188,0.06658921390771866,-0.01894420385360718,0.03199458122253418,XArbitraryZVertical,-0.0107234314715899,0.01167526141891234,-0.001010584739222405,0.9998738739938985,-0.08486926555633545,-0.5938029885292053,-0.8001220226287842,0,0,0,-1,-1,3066.798037375,unknown,2,2026-05-05T16:59:18.138+02:00,2026-05-05T16:12:27.330+02:00,1618,1.315207,0,0,1418.052,0,0,2026-05-05T16:59:25.874+02:00,799685968.5403725,0,-0.3500004,100.769,1,0.7,0
2026-05-05T16:59:30.220+02:00,1777993168.999466,53.23565803650313,10.40152943729329,25.23766,0.4196503,1.487839,-1,-1,5.582828087996303,2.000234277390156,-9999,3078.875022166667,0.022552490234375,-0.608428955078125,-0.790557861328125,3078.864950166667,-0.002117339647179165,0.02379345479964751,-0.02173841923704585,-0.02258429862558842,0.02042111940681934,-0.01678969897329807,0.06657034158706665,-0.01837533712387085,0.01937150955200195,XArbitraryZVertical,-0.01085562578270445,0.01190724223785171,-0.001187834410441205,0.9998695576882429,-0.08428581058979034,-0.5936241745948792,-0.800316333770752,0,0,0,-1,-1,3066.798037375,unknown,2,2026-05-05T16:59:18.138+02:00,2026-05-05T16:12:27.330+02:00,1618,1.315207,0,0,1418.052,0,0,2026-05-05T16:59:25.874+02:00,799685968.5403725,0,-0.3500004,100.769,1,0.7,0
2026-05-05T16:59:30.230+02:00,1777993168.999466,53.23565803650313,10.40152943729329,25.23766,0.4196503,1.487839,-1,-1,5.582828087996303,2.000234277390156,-9999,3078.885095166667,0.023773193359375,-0.615234375,-0.7938385009765625,3078.875022166667,-0.002219615737089688,0.02374493094809408,-0.02190899540290683,-0.01613225787878036,-0.0330415740609169,-0.0001324256882071495,0.0868842601776123,-0.0140453577041626,0.007702887058258057,XArbitraryZVertical,-0.01094032362210614,0.01188362193228969,-0.001239713840115157,0.9998688743117611,-0.08425978571176529,-0.5934985876083374,-0.8004122376441956,0,0,0,-1,-1,3066.798037375,unknown,2,2026-05-05T16:59:18.138+02:00,2026-05-05T16:12:27.330+02:00,1618,1.315207,0,0,1418.052,0,0,2026-05-05T16:59:25.874+02:00,799685968.5403725,0,-0.3500004,100.769,1,0.7,0
2026-05-05T16:59:30.240+02:00,1777993168.999466,53.23565803650313,10.40152943729329,25.23766,0.4196503,1.487839,-1,-1,5.582828087996303,2.000234277390156,-9999,3078.895168166667,0.001373291015625,-0.617828369140625,-0.8025360107421875,3078.885095166667,-0.002258355210589428,0.0234167540249061,-0.02197685752968026,0.000256515690125525,-0.03604934737086296,-0.007503523025661707,0.1070503368973732,-0.0149804949760437,0.009866476058959961,XArbitraryZVertical,-0.0109742264049223,0.01171980055341071,-0.001257682674639025,0.9998704286922389,-0.0844978541135788,-0.5934484601020813,-0.800424337387085,0,0,0,-1,-1,3066.798037375,unknown,2,2026-05-05T16:59:18.138+02:00,2026-05-05T16:12:27.330+02:00,1618,1.315207,0,0,1418.052,0,0,2026-05-05T16:59:25.874+02:00,799685968.5403725,0,-0.3500004,100.769,1,0.7,0
2026-05-05T16:59:30.336+02:00,1777993168.999466,53.23565803650313,10.40152943729329,25.23766,0.4196503,1.487839,-1,-1,5.582828087996303,2.000234277390156,-9999,3078.905240166667,-0.0129547119140625,-0.6051483154296875,-0.803253173828125,3078.895168166667,-0.002495780230483822,0.02327527466863364,-0.02188564011250448,0.01647117175161839,0.001882588490843773,-0.03223603218793869,0.1082405298948288,-0.02168869972229004,0.006516933441162109,XArbitraryZVertical,-0.01092732999678323,0.01165032214402702,-0.001375073506935201,0.9998715572303251,-0.08446734398603439,-0.59354567527771,-0.8003554344177246,0,0,0,-1,-1,3066.798037375,unknown,2,2026-05-05T16:59:18.138+02:00,2026-05-05T16:12:27.330+02:00,1618,1.315207,0,0,1418.052,0,0,2026-05-05T16:59:25.874+02:00,799685968.5403725,0,-0.3500004,100.769,1,0.7,0
2026-05-05T16:59:30.338+02:00,1777993168.999466,53.23565803650313,10.40152943729329,25.23766,0.4196503,1.487839,-1,-1,5.582828087996303,2.000234277390156,-9999,3078.915313166667,-0.0049896240234375,-0.6049652099609375,-0.793121337890625,3078.905240166667,-0.002878490656116699,0.02344303790999327,-0.02172127095509753,0.007896964438259602,0.02064429223537445,-0.03677811846137047,0.08547486364841461,-0.02411216497421265,-0.002268552780151367,XArbitraryZVertical,-0.01084279548828621,0.01173617641812143,-0.001566358611185287,0.9998711509226939,-0.084101602435112,-0.5937162041664124,-0.8002673983573914,0,0,0,-1,-1,3066.798037375,unknown,2,2026-05-05T16:59:18.138+02:00,2026-05-05T16:12:27.330+02:00,1618,1.315207,0,0,1418.052,0,0,2026-05-05T16:59:25.874+02:00,799685968.5403725,0,-0.3500004,100.769,1,0.7,0
2026-05-05T16:59:30.339+02:00,1777993168.999466,53.23565803650313,10.40152943729329,25.23766,0.4196503,1.487839,-1,-1,5.582828087996303,2.000234277390156,-9999,3078.925385166667,0.0042724609375,-0.612274169921875,-0.779266357421875,3078.915313166667,-0.003222062838508055,0.02369466462646708,-0.02188373790083855,-0.04216140881180763,0.026319220662117,-0.02465115115046501,0.07073336094617844,-0.01152652502059937,-0.002872347831726074,XArbitraryZVertical,-0.01092178359500645,0.01186395657303464,-0.001740447377391241,0.9998684687718727,-0.08368808031082153,-0.5936217904090881,-0.8003807663917542,0,0,0,-1,-1,3066.798037375,unknown,2,2026-05-05T16:59:18.138+02:00,2026-05-05T16:12:27.330+02:00,1618,1.315207,0,0,1418.052,0,0,2026-05-05T16:59:25.874+02:00,799685968.5403725,0,-0.3500004,100.769,1,0.7,0
2026-05-05T16:59:30.339+02:00,1777993168.999466,53.23565803650313,10.40152943729329,25.23766,0.4196503,1.487839,-1,-1,5.582828087996303,2.000234277390156,-9999,3078.935458166667,0.0068511962890625,-0.613739013671875,-0.7982635498046875,3078.925385166667,-0.003351826517157775,0.02409226667906925,-0.02240170304752061,-0.05878666788339615,0.04581302776932716,0.006891794968396425,0.07829353958368301,-0.01174354553222656,0.007598340511322021,XArbitraryZVertical,-0.01117960180696189,0.01206383868398115,-0.001810606320320031,0.9998631476681201,-0.0832831859588623,-0.5932216644287109,-0.800719678401947,0,0,0,-1,-1,3066.798037375,unknown,2,2026-05-05T16:59:18.138+02:00,2026-05-05T16:12:27.330+02:00,1618,1.315207,0,0,1418.052,0,0,2026-05-05T16:59:25.874+02:00,799685968.5403725,0,-0.3500004,100.769,1,0.7,0
2026-05-05T16:59:30.340+02:00,1777993168.999466,53.23565803650313,10.40152943729329,25.23766,0.4196503,1.487839,-1,-1,5.582828087996303,2.000234277390156,-9999,3078.945531166667,0.0058441162109375,-0.611663818359375,-0.8309783935546875,3078.935458166667,-0.003174701664635824,0.0245898447713511,-0.02279700186836498,-0.02046431601047516,0.03950346633791924,0.02850654348731041,0.08725961297750473,-0.01938635110855103,0.02173125743865967,XArbitraryZVertical,-0.01137786285527303,0.01231188922599576,-0.001727263880363006,0.9998580503712147,-0.08298718184232712,-0.592887818813324,-0.8009976148605347,0,0,0,-1,-1,3066.798037375,unknown,2,2026-05-05T16:59:18.138+02:00,2026-05-05T16:12:27.330+02:00,1618,1.315207,0,0,1418.052,0,0,2026-05-05T16:59:25.874+02:00,799685968.5403725,0,-0.3500004,100.769,1,0.7,0
2026-05-05T16:59:30.340+02:00,1777993168.999466,53.23565803650313,10.40152943729329,25.23766,0.4196503,1.487839,-1,-1,5.582828087996303,2.000234277390156,-9999,3078.955603166667,-0.0071258544921875,-0.6028594970703125,-0.8377685546875,3078.945531166667,-0.002973609284108709,0.02482180457815587,-0.02284874767571602,0.003417421597987413,-0.005285575985908508,0.0138037633150816,0.08977461606264114,-0.02091312408447266,0.002786576747894287,XArbitraryZVertical,-0.01140478150871256,0.01242674369496172,-0.001628372399121486,0.9998564587885931,-0.08292344212532043,-0.5928258299827576,-0.801050066947937,0,0,0,-1,-1,3066.798037375,unknown,2,2026-05-05T16:59:18.138+02:00,2026-05-05T16:12:27.330+02:00,1618,1.315207,0,0,1418.052,0,0,2026-05-05T16:59:25.874+02:00,799685968.5403725,0,-0.3500004,100.769,1,0.7,0
2026-05-05T16:59:30.341+02:00,1777993168.999466,53.23565803650313,10.40152943729329,25.23766,0.4196503,1.487839,-1,-1,5.582828087996303,2.000234277390156,-9999,3078.965676166667,-0.011932373046875,-0.5940704345703125,-0.810882568359375,3078.955603166667,-0.003010416439865731,0.02463959348705434,-0.02275922022386482,0.01031074766069651,-0.03383705765008926,-0.01193409133702517,0.08889231830835342,-0.01876270771026611,-0.02999687194824219,XArbitraryZVertical,-0.01135994569030923,0.01233580028959227,-0.001645183693953005,0.9998580436738301,-0.08304822444915771,-0.5929010510444641,-0.8009814620018005,0,0,0,-1,-1,3066.798037375,unknown,2,2026-05-05T16:59:18.138+02:00,2026-05-05T16:12:27.330+02:00,1618,1.315207,0,0,1418.052,0,0,2026-05-05T16:59:25.874+02:00,799685968.5403725,0,-0.3500004,100.769,1,0.7,0
2026-05-05T16:59:30.342+02:00,1777993168.999466,53.23565803650313,10.40152943729329,25.23766,0.4196503,1.487839,-1,-1,5.582828087996303,2.000234277390156,-9999,3078.975749166667,-0.01544189453125,-0.6015625,-0.79443359375,3078.965676166667,-0.003197731386526838,0.02453240786817958,-0.02263212496072689,0.01567573845386505,0.01214241702109575,-0.01839818060398102,0.07589565217494965,-0.009837627410888672,-0.03687369823455811,XArbitraryZVertical,-0.01129534447092597,0.01228318588559143,-0.001737440789309663,0.9998592948440368,-0.08302151411771774,-0.5930218696594238,-0.8008947968482971,0,0,0,-1,-1,3066.798037375,unknown,2,2026-05-05T16:59:18.138+02:00,2026-05-05T16:12:27.330+02:00,1618,1.315207,0,0,1418.052,0,0,2026-05-05T16:59:25.874+02:00,799685968.5403725,0,-0.3500004,100.769,1,0.7,0
2026-05-05T16:59:30.342+02:00,1777993168.999466,53.23565803650313,10.40152943729329,25.23766,0.4196503,1.487839,-1,-1,5.582828087996303,2.000234277390156,-9999,3078.985821166667,-0.017059326171875,-0.6038818359375,-0.8041534423828125,3078.975749166667,-0.003764609771331601,0.02542758878090816,-0.02225953108872902,0.0386420413851738,0.07127337902784348,-0.01731107942759991,0.07003148645162582,-0.0006929636001586914,-0.01014214754104614,XArbitraryZVertical,-0.01110468732559174,0.01273358924989027,-0.002023529611551097,0.9998552267316956,-0.08196388185024261,-0.593377411365509,-0.8007403612136841,0,0,0,-1,-1,3066.798037375,unknown,2,2026-05-05T16:59:18.138+02:00,2026-05-05T16:12:27.330+02:00,1618,1.315207,0,0,1418.052,0,0,2026-05-05T16:59:25.874+02:00,799685968.5403725,0,-0.3500004,100.769,1,0.7,0
2026-05-05T16:59:30.343+02:00,1777993168.999466,53.23565803650313,10.40152943729329,25.23766,0.4196503,1.487839,-1,-1,5.582828087996303,2.000234277390156,-9999,3078.995894166667,0.0063323974609375,-0.6025390625,-0.7969818115234375,3078.985821166667,-0.003891355377350273,0.0261584269094973,-0.02198986249104325,-0.002589178504422307,0.04884903132915497,-0.00232034595683217,0.06586351990699768,-0.007956802845001221,0.006204724311828613,XArbitraryZVertical,-0.01096830201820644,0.01309941457377909,-0.002089190050172875,0.9998519346833405,-0.08130542188882828,-0.5936056971549988,-0.8006383180618286,0,0,0,-1,-1,3066.798037375,unknown,2,2026-05-05T16:59:18.138+02:00,2026-05-05T16:12:27.330+02:00,1618,1.315207,0,0,1418.052,0,0,2026-05-05T16:59:25.874+02:00,799685968.5403725,0,-0.3500004,100.769,1,0.7,0
2026-05-05T16:59:30.350+02:00,1777993168.999466,53.23565803650313,10.40152943729329,25.23766,0.4196503,1.487839,-1,-1,5.582828087996303,2.000234277390156,-9999,3079.005966166667,0.0294952392578125,-0.6059722900390625,-0.7647552490234375,3078.995894166667,-0.003832130392823236,0.02636695542849839,-0.02236453232442398,-0.06610424071550369,-0.000943291699513793,0.02196741662919521,0.06410945206880569,-0.01058125495910645,-0.003275096416473389,XArbitraryZVertical,-0.01115578168617478,0.01320366972173804,-0.002063191041849192,0.9998485654856065,-0.08116878569126129,-0.5933005809783936,-0.8008783459663391,0,0,0,-1,-1,3066.798037375,unknown,2,2026-05-05T16:59:18.138+02:00,2026-05-05T16:12:27.330+02:00,1618,1.315207,0,0,1418.052,0,0,2026-05-05T16:59:25.874+02:00,799685968.5403725,0,-0.3500004,100.769,1,0.7,0
2026-05-05T16:59:30.361+02:00,1777993168.999466,53.23565803650313,10.40152943729329,25.23766,0.4196503,1.487839,-1,-1,5.582828087996303,2.000234277390156,-9999,3079.016039166667,0.0175323486328125,-0.6131439208984375,-0.781097412109375,3079.005966166667,-0.003556594477615492,0.02641087351082119,-0.02289570909476391,-0.03995673730969429,0.0007536746561527252,0.0346493236720562,0.08762597292661667,-0.009690940380096436,0.004218816757202148,XArbitraryZVertical,-0.01142310656975019,0.01322452138473162,-0.001929190573504723,0.9998455057057305,-0.08129359781742096,-0.5928481221199036,-0.8012006282806396,0,0,0,-1,-1,3066.798037375,unknown,2,2026-05-05T16:59:18.138+02:00,2026-05-05T16:12:27.330+02:00,1618,1.315207,0,0,1418.052,0,0,2026-05-05T16:59:25.874+02:00,799685968.5403725,0,-0.3500004,100.769,1,0.7,0
2026-05-05T16:59:30.371+02:00,1777993168.999466,53.23565803650313,10.40152943729329,25.23766,0.4196503,1.487839,-1,-1,5.582828087996303,2.000234277390156,-9999,3079.026112166667,-0.006439208984375,-0.6069488525390625,-0.8004150390625,3079.016039166667,-0.003504615569831807,0.02674966882856176,-0.02307178398379223,-0.03121118247509003,-0.00686190091073513,0.02309253439307213,0.1105463057756424,-0.01327013969421387,0.03657793998718262,XArbitraryZVertical,-0.01151115162359069,0.01339373682724575,-0.001906315868916749,0.9998422627612157,-0.08105110377073288,-0.5927021503448486,-0.8013331890106201,0,0,0,-1,-1,3066.798037375,unknown,2,2026-05-05T16:59:18.138+02:00,2026-05-05T16:12:27.330+02:00,1618,1.315207,0,0,1418.052,0,0,2026-05-05T16:59:25.874+02:00,799685968.5403725,0,-0.3500004,100.769,1,0.7,0
2026-05-05T16:59:30.381+02:00,1777993168.999466,53.23565803650313,10.40152943729329,25.23766,0.4196503,1.487839,-1,-1,5.582828087996303,2.000234277390156,-9999,3079.036184166667,-0.0128173828125,-0.597259521484375,-0.7867279052734375,3079.026112166667,-0.003653351445353036,0.02685575020076635,-0.02344233803998055,-0.05737519264221191,-0.03549407795071602,-0.00260423868894577,0.09840169548988342,-0.02072256803512573,0.02046173810958862,XArbitraryZVertical,-0.01169529708781847,0.01344793355297291,-0.001983766084430703,0.9998393250764578,-0.08086936175823212,-0.5924214124679565,-0.8015591502189636,0,0,0,-1,-1,3066.798037375,unknown,2,2026-05-05T16:59:18.138+02:00,2026-05-05T16:12:27.330+02:00,1618,1.315207,0,0,1418.052,0,0,2026-05-05T16:59:25.874+02:00,799685968.5403725,0,-0.3500004,100.769,1,0.7,0
2026-05-05T16:59:30.391+02:00,1777993168.999466,53.23565803650313,10.40152943729329,25.23766,0.4196503,1.487839,-1,-1,5.582828087996303,2.000234277390156,-9999,3079.046257166667,-0.016937255859375,-0.601287841796875,-0.7722015380859375,3079.036184166667,-0.003952745701235897,0.02688287379120923,-0.02409787834319271,-0.06204131990671158,-0.01315814629197121,-0.01446649059653282,0.07421507686376572,-0.01502084732055664,0.001530170440673828,XArbitraryZVertical,-0.01202097165128458,0.01346383901140142,-0.002137995217612425,0.9998349366969458,-0.08065430819988251,-0.5919280052185059,-0.8019452095031738,0,0,0,-1,-1,3066.798037375,unknown,2,2026-05-05T16:59:18.138+02:00,2026-05-05T16:12:27.330+02:00,1618,1.315207,0,0,1418.052,0,0,2026-05-05T16:59:25.874+02:00,799685968.5403725,0,-0.3500004,100.769,1,0.7,0
2026-05-05T16:59:30.401+02:00,1777993168.999466,53.23565803650313,10.40152943729329,25.23766,0.4196503,1.487839,-1,-1,5.582828087996303,2.000234277390156,-9999,3079.056329166667,-0.0244598388671875,-0.6013336181640625,-0.7843170166015625,3079.046257166667,-0.004350349279079946,0.02727667266857367,-0.02464616510711781,-0.02931831404566765,0.03201865032315254,-0.01843886263668537,0.06726933270692825,-0.005729436874389648,0.01556771993637085,XArbitraryZVertical,-0.01229193182016895,0.01366364620899358,-0.002342861732697863,0.9998284372206987,-0.08008675277233124,-0.5915301442146301,-0.8022956252098083,0,0,0,-1,-1,3066.798037375,unknown,2,2026-05-05T16:59:18.138+02:00,2026-05-05T16:12:27.330+02:00,1618,1.315207,0,0,1418.052,0,0,2026-05-05T16:59:25.874+02:00,799685968.5403725,0,-0.3500004,100.769,1,0.7,0
2026-05-05T16:59:30.419+02:00,1777993168.999466,53.23565803650313,10.40152943729329,25.23766,0.4196503,1.487839,-1,-1,5.582828087996303,2.000234277390156,-9999,3079.066402166667,-0.0079193115234375,-0.598663330078125,-0.7940826416015625,3079.056329166667,-0.004441587766122974,0.02775132510856817,-0.02478799050551058,-0.008257769979536533,0.04389475286006927,0.002676809672266245,0.06271058320999146,-0.009861886501312256,0.03021454811096191,XArbitraryZVertical,-0.01236164198576518,0.01390163773322744,-0.002392372113681788,0.9998241478399456,-0.07964785397052765,-0.5914259552955627,-0.8024160861968994,0,0,0,-1,-1,3066.798037375,unknown,2,2026-05-05T16:59:18.138+02:00,2026-05-05T16:12:27.330+02:00,1618,1.315207,0,0,1418.052,0,0,2026-05-05T16:59:25.874+02:00,799685968.5403725,0,-0.3500004,100.769,1,0.7,0
2026-05-05T16:59:30.421+02:00,1777993168.999466,53.23565803650313,10.40152943729329,25.23766,0.4196503,1.487839,-1,-1,5.582828087996303,2.000234277390156,-9999,3079.076475166667,-0.0038909912109375,-0.596527099609375,-0.7897796630859375,3079.066402166667,-0.004463058387066553,0.02817122725916917,-0.02496915107898513,-0.03244534507393837,0.02925242856144905,-0.006055229343473911,0.05483490228652954,-0.01005047559738159,0.01823925971984863,XArbitraryZVertical,-0.01245155243104631,0.01411187093160934,-0.002406974098386043,0.9998200201883215,-0.07929477095603943,-0.5912831425666809,-0.8025562763214111,0,0,0,-1,-1,3066.798037375,unknown,2,2026-05-05T16:59:18.138+02:00,2026-05-05T16:12:27.330+02:00,1618,1.315207,0,0,1418.052,0,0,2026-05-05T16:59:25.874+02:00,799685968.5403725,0,-0.3500004,100.769,1,0.7,0
2026-05-05T16:59:30.431+02:00,1777993168.999466,53.23565803650313,10.40152943729329,25.23766,0.4196503,1.487839,-1,-1,5.582828087996303,2.000234277390156,-9999,3079.086547166667,-0.0081024169921875,-0.60333251953125,-0.81573486328125,3079.076475166667,-0.004609394965715103,0.02845047284038449,-0.0251009636166801,0.008307944051921368,0.02285418286919594,-0.01715927943587303,0.0710596963763237,-0.00747072696685791,0.008571505546569824,XArbitraryZVertical,-0.01251606792536978,0.01425251978775166,-0.002482803126294871,0.9998170192981745,-0.07897904515266418,-0.5911926031112671,-0.8026540875434875,0,0,0,-1,-1,3066.798037375,unknown,2,2026-05-05T16:59:18.138+02:00,2026-05-05T16:12:27.330+02:00,1618,1.315207,0,0,1418.052,0,0,2026-05-05T16:59:25.874+02:00,799685968.5403725,0,-0.3500004,100.769,1,0.7,0
2026-05-05T16:59:30.441+02:00,1777993168.999466,53.23565803650313,10.40152943729329,25.23766,0.4196503,1.487839,-1,-1,5.582828087996303,2.000234277390156,-9999,3079.096620166667,-0.00677490234375,-0.5988616943359375,-0.8307037353515625,3079.086547166667,-0.004884773603080686,0.02875963021853594,-0.0248223578060759,0.04642001539468765,0.03733565658330917,-0.03162570297718048,0.07467638701200485,-0.005083620548248291,0.01273000240325928,XArbitraryZVertical,-0.01237442262884631,0.01440847770252378,-0.002620402874442808,0.9998162155517548,-0.07856740057468414,-0.5914434790611267,-0.8025096654891968,0,0,0,-1,-1,3066.798037375,unknown,2,2026-05-05T16:59:18.138+02:00,2026-05-05T16:12:27.330+02:00,1618,1.315207,0,0,1418.052,0,0,2026-05-05T16:59:25.874+02:00,799685968.5403725,0,-0.3500004,100.769,1,0.7,0
2026-05-05T16:59:30.451+02:00,1777993168.999466,53.23565803650313,10.40152943729329,25.23766,0.4196503,1.487839,-1,-1,5.582828087996303,2.000234277390156,-9999,3079.106692166667,0.0025482177734375,-0.5916748046875,-0.8123626708984375,3079.096620166667,-0.00583232547903328,0.0297215775555246,-0.02392633303208092,0.08374235779047012,0.02164244279265404,-0.05313259363174438,0.06912977993488312,-0.01107650995254517,-0.01369494199752808,XArbitraryZVertical,-0.01191817698016606,0.01489399621820752,-0.003093398311642614,0.9998133171962899,-0.0772322341799736,-0.5922560095787048,-0.8020399212837219,0,0,0,-1,-1,3066.798037375,unknown,2,2026-05-05T16:59:18.138+02:00,2026-05-05T16:12:27.330+02:00,1618,1.315207,0,0,1418.052,0,0,2026-05-05T16:59:25.874+02:00,799685968.5403725,0,-0.3500004,100.769,1,0.7,0
2026-05-05T16:59:30.461+02:00,1777993168.999466,53.23565803650313,10.40152943729329,25.23766,0.4196503,1.487839,-1,-1,5.582828087996303,2.000234277390156,-9999,3079.116765166667,0.018157958984375,-0.5969696044921875,-0.7777557373046875,3079.106692166667,-0.006408307217240515,0.02992920553379342,-0.0230822125608767,0.07563723623752594,0.02579804137349129,-0.05221739783883095,0.06995378434658051,-0.00587308406829834,-0.02915692329406738,XArbitraryZVertical,-0.01149155502876688,0.01499994559629939,-0.003376272973711166,0.9998157377191763,-0.0767287090420723,-0.5929885506629944,-0.8015467524528503,0,0,0,-1,-1,3066.798037375,unknown,2,2026-05-05T16:59:18.138+02:00,2026-05-05T16:12:27.330+02:00,1618,1.315207,0,0,1418.052,0,0,2026-05-05T16:59:25.874+02:00,799685968.5403725,0,-0.3500004,100.769,1,0.7,0
2026-05-05T16:59:30.471+02:00,1777993168.999466,53.23565803650313,10.40152943729329,25.23766,0.4196503,1.487839,-1,-1,5.582828087996303,2.000234277390156,-9999,3079.126838166667,0.02178955078125,-0.60577392578125,-0.7611236572265625,3079.116765166667,-0.006879825709555062,0.03033071579797962,-0.0226048363381117,0.01734836399555206,0.04557574167847633,-0.02953259274363518,0.07867556065320969,0.001742660999298096,-0.01107597351074219,XArbitraryZVertical,-0.01124864745726859,0.01520259020875426,-0.0036106842802076,0.9998147718531006,-0.07612735778093338,-0.5934174656867981,-0.8012866973876953,0,0,0,-1,-1,3066.798037375,unknown,2,2026-05-05T16:59:18.138+02:00,2026-05-05T16:12:27.330+02:00,1618,1.315207,0,0,1418.052,0,0,2026-05-05T16:59:25.874+02:00,799685968.5403725,0,-0.3500004,100.769,1,0.7,0
2026-05-05T16:59:30.481+02:00,1777993168.999466,53.23565803650313,10.40152943729329,25.23766,0.4196503,1.487839,-1,-1,5.582828087996303,2.000234277390156,-9999,3079.136910166667,0.011077880859375,-0.61529541015625,-0.775421142578125,3079.126838166667,-0.007126696585344545,0.03075213692072957,-0.02252693198103007,0.01014030538499355,0.02291783317923546,-0.01817361079156399,0.09379814565181732,-0.00346529483795166,0.02351278066635132,XArbitraryZVertical,-0.01120704002099774,0.01541451915780214,-0.003735869634752865,0.9998114335476445,-0.07564020901918411,-0.5935043096542358,-0.801268458366394,0,0,0,-1,-1,3066.798037375,unknown,2,2026-05-05T16:59:18.138+02:00,2026-05-05T16:12:27.330+02:00,1618,1.315207,0,0,1418.052,0,0,2026-05-05T16:59:25.874+02:00,799685968.5403725,0,-0.3500004,100.769,1,0.7,0
2026-05-05T16:59:30.491+02:00,1777993168.999466,53.23565803650313,10.40152943729329,25.23766,0.4196503,1.487839,-1,-1,5.582828087996303,2.000234277390156,-9999,3079.146983166667,-0.0089263916015625,-0.612884521484375,-0.7690277099609375,3079.136910166667,-0.007434009541819026,0.03077247373973265,-0.02244793103141139,-0.006141728721559048,-0.02320492081344128,-0.03866583853960037,0.0972270742058754,-0.01217567920684814,0.04009443521499634,XArbitraryZVertical,-0.01116513851681118,0.0154262672131761,-0.003889004884130051,0.9998111577480269,-0.07543755322694778,-0.5935981869697571,-0.8012180328369141,0,0,0,-1,-1,3066.798037375,unknown,2,2026-05-05T16:59:18.138+02:00,2026-05-05T16:12:27.330+02:00,1618,1.315207,0,0,1418.052,0,0,2026-05-05T16:59:25.874+02:00,799685968.5403725,0,-0.3500004,100.769,1,0.7,0
2026-05-05T16:59:30.502+02:00,1777993168.999466,53.23565803650313,10.40152943729329,25.23766,0.4196503,1.487839,-1,-1,5.582828087996303,2.000234277390156,-9999,3079.157055166667,-0.01654052734375,-0.607940673828125,-0.756561279296875,3079.146983166667,-0.007898119627186475,0.03058764307384697,-0.02278358444077335,-0.04431116580963135,-0.0004037353210151196,-0.04857239872217178,0.08637376129627228,-0.02191895246505737,0.02597445249557495,XArbitraryZVertical,-0.01132973440350555,0.01533709346814012,-0.004122543385405779,0.999809743559692,-0.07529589533805847,-0.5933764576911926,-0.8013955950737,0,0,0,-1,-1,3066.798037375,unknown,2,2026-05-05T16:59:18.138+02:00,2026-05-05T16:12:27.330+02:00,1618,1.315207,0,0,1418.052,0,0,2026-05-05T16:59:25.874+02:00,799685968.5403725,0,-0.3500004,100.769,1,0.7,0
2026-05-05T16:59:30.512+02:00,1777993168.999466,53.23565803650313,10.40152943729329,25.23766,0.4196503,1.487839,-1,-1,5.582828087996303,2.000234277390156,-9999,3079.167128166667,-0.0203094482421875,-0.6125640869140625,-0.7908935546875,3079.157055166667,-0.008374941774422958,0.03103731413571449,-0.02283138449156735,0.03374635055661201,0.07088882476091385,-0.04304127767682076,0.06571678072214127,-0.01949870586395264,0.03242200613021851,XArbitraryZVertical,-0.01134899183235869,0.01556468163186484,-0.004363824916994162,0.9998050146978351,-0.07464320212602615,-0.5933858156204224,-0.801449716091156,0,0,0,-1,-1,3066.798037375,unknown,2,2026-05-05T16:59:18.138+02:00,2026-05-05T16:12:27.330+02:00,1618,1.315207,0,0,1418.052,0,0,2026-05-05T16:59:25.874+02:00,799685968.5403725,0,-0.3500004,100.769,1,0.7,0
2026-05-05T16:59:30.522+02:00,1777993168.999466,53.23565803650313,10.40152943729329,25.23766,0.4196503,1.487839,-1,-1,5.582828087996303,2.000234277390156,-9999,3079.177201166667,-0.0030670166015625,-0.6001129150390625,-0.8123321533203125,3079.167128166667,-0.008820260634644281,0.03164544755518486,-0.02241801633869747,0.04522750899195671,0.03489513322710991,-0.03653164580464363,0.05735082179307938,-0.01418048143386841,0.04468083381652832,XArbitraryZVertical,-0.01113748733652244,0.01587033967999059,-0.004586630586484024,0.9998016240680498,-0.07389137148857117,-0.5937602519989014,-0.8012421131134033,0,0,0,-1,-1,3066.798037375,unknown,2,2026-05-05T16:59:18.138+02:00,2026-05-05T16:12:27.330+02:00,1618,1.315207,0,0,1418.052,0,0,2026-05-05T16:59:25.874+02:00,799685968.5403725,0,-0.3500004,100.769,1,0.7,0
2026-05-05T16:59:30.532+02:00,1777993168.999466,53.23565803650313,10.40152943729329,25.23766,0.4196503,1.487839,-1,-1,5.582828087996303,2.000234277390156,-9999,3079.187273166667,0.00872802734375,-0.60235595703125,-0.814208984375,3079.177201166667,-0.009317973851521551,0.03147959626303567,-0.02204937093977419,0.0356353335082531,-0.07037109881639481,-0.05465232580900192,0.05341741442680359,-0.01846033334732056,0.01010900735855103,XArbitraryZVertical,-0.01094965246724338,0.01578937619765548,-0.004831623304011796,0.9998037732911489,-0.07372688502073288,-0.5941037535667419,-0.801002562046051,0,0,0,-1,-1,3066.798037375,unknown,2,2026-05-05T16:59:18.138+02:00,2026-05-05T16:12:27.330+02:00,1618,1.315207,0,0,1418.052,0,0,2026-05-05T16:59:25.874+02:00,799685968.5403725,0,-0.3500004,100.769,1,0.7,0
2026-05-05T16:59:30.542+02:00,1777993168.999466,53.23565803650313,10.40152943729329,25.23766,0.4196503,1.487839,-1,-1,5.582828087996303,2.000234277390156,-9999,3079.197346166667,0.0083160400390625,-0.613006591796875,-0.8235626220703125,3079.187273166667,-0.009970778929751336,0.03056718099110578,-0.02159229444817421,0.05822570249438286,-0.1042300015687943,-0.06820588558912277,0.07099984586238861,-0.005579948425292969,-0.01167953014373779,XArbitraryZVertical,-0.01071835484565292,0.01533572934054609,-0.005149487911236578,0.9998117561479227,-0.0740668997168541,-0.5945330262184143,-0.8006526231765747,0,0,0,-1,-1,3066.798037375,unknown,2,2026-05-05T16:59:18.138+02:00,2026-05-05T16:12:27.330+02:00,1618,1.315207,0,0,1418.052,0,0,2026-05-05T16:59:25.874+02:00,799685968.5403725,0,-0.3500004,100.769,1,0.7,0
2026-05-05T16:59:30.552+02:00,1777993168.999466,53.23565803650313,10.40152943729329,25.23766,0.4196503,1.487839,-1,-1,5.582828087996303,2.000234277390156,-9999,3079.207419166667,0.0138092041015625,-0.6146697998046875,-0.821075439453125,3079.197346166667,-0.01068767881345472,0.02958083355567763,-0.02081106319529298,0.1032805293798447,-0.09097331762313843,-0.06258155405521393,0.08315999060869217,-0.007129251956939697,-0.01410573720932007,XArbitraryZVertical,-0.01032502685754987,0.01484446348137141,-0.005496831648024631,0.999821417717241,-0.07443197071552277,-0.5952266454696655,-0.8001031875610352,0,0,0,-1,-1,3066.798037375,unknown,2,2026-05-05T16:59:18.138+02:00,2026-05-05T16:12:27.330+02:00,1618,1.315207,0,0,1418.052,0,0,2026-05-05T16:59:25.874+02:00,799685968.5403725,0,-0.3500004,100.769,1,0.7,0
2026-05-05T16:59:30.562+02:00,1777993168.999466,53.23565803650313,10.40152943729329,25.23766,0.4196503,1.487839,-1,-1,5.582828087996303,2.000234277390156,-9999,3079.217491166667,0.0132293701171875,-0.623260498046875,-0.8184051513671875,3079.207419166667,-0.01137233642713473,0.02896115132353489,-0.01932668480753342,0.1913379430770874,-0.03450897336006165,-0.05702406913042068,0.08285069465637207,-0.01652973890304565,-0.02440059185028076,XArbitraryZVertical,-0.009579690630789216,0.01453409954489659,-0.005825197240497215,0.9998315406114385,-0.07453468441963196,-0.5964768528938293,-0.7991620302200317,0,0,0,-1,-1,3066.798037375,unknown,2,2026-05-05T16:59:18.138+02:00,2026-05-05T16:12:27.330+02:00,1618,1.315207,0,0,1418.052,0,0,2026-05-05T16:59:25.874+02:00,799685968.5403725,0,-0.3500004,100.769,1,0.7,0
2026-05-05T16:59:30.572+02:00,1777993168.999466,53.23565803650313,10.40152943729329,25.23766,0.4196503,1.487839,-1,-1,5.582828087996303,2.000234277390156,-9999,3079.227564166667,0.02191162109375,-0.6265106201171875,-0.8011932373046875,3079.217491166667,-0.01189540848169301,0.02865358953854657,-0.01738098727115127,0.1742883920669556,-0.04307769611477852,-0.03361541777849197,0.08830305188894272,-0.01659297943115234,-0.02310627698898315,XArbitraryZVertical,-0.00860413331274654,0.01437719170633459,-0.006071332750505035,0.9998412449136581,-0.07449387013912201,-0.5980768203735352,-0.7979691624641418,0,0,0,-1,-1,3066.798037375,unknown,2,2026-05-05T16:59:18.138+02:00,2026-05-05T16:12:27.330+02:00,1618,1.315207,0,0,1418.052,0,0,2026-05-05T16:59:25.874+02:00,799685968.5403725,0,-0.3500004,100.769,1,0.7,0
2026-05-05T16:59:30.582+02:00,1777993168.999466,53.23565803650313,10.40152943729329,25.23766,0.4196503,1.487839,-1,-1,5.582828087996303,2.000234277390156,-9999,3079.237636166667,0.01953125,-0.6253814697265625,-0.7443389892578125,3079.227564166667,-0.01225146077427654,0.02809653556713897,-0.01614968829153303,0.06805820018053055,-0.06611829996109009,-0.02105941250920296,0.08797065168619156,-0.02417004108428955,-0.02121984958648682,XArbitraryZVertical,-0.007987757994848519,0.01409654201792953,-0.006238318077725066,0.9998493243411731,-0.07474130392074585,-0.5990904569625854,-0.7971852421760559,0,0,0,-1,-1,3066.798037375,unknown,2,2026-05-05T16:59:18.138+02:00,2026-05-05T16:12:27.330+02:00,1618,1.315207,0,0,1418.052,0,0,2026-05-05T16:59:25.874+02:00,799685968.5403725,0,-0.3500004,100.769,1,0.7,0
2026-05-05T16:59:30.592+02:00,1777993168.999466,53.23565803650313,10.40152943729329,25.23766,0.4196503,1.487839,-1,-1,5.582828087996303,2.000234277390156,-9999,3079.247709166667,-0.0003509521484375,-0.627471923828125,-0.7295379638671875,3079.237636166667,-0.01240212773311548,0.02761368545602963,-0.01584373853682289,-0.0001488174893893301,-0.02431679144501686,-0.002468683291226625,0.09695074707269669,-0.02716231346130371,-0.00422978401184082,XArbitraryZVertical,-0.0078352670963383,0.0138548224371403,-0.006309607118894049,0.9998535161615263,-0.07503913342952728,-0.5993483066558838,-0.7969635128974915,0,0,0,-1,-1,3066.798037375,unknown,2,2026-05-05T16:59:18.138+02:00,2026-05-05T16:12:27.330+02:00,1618,1.315207,0,0,1418.052,0,0,2026-05-05T16:59:25.874+02:00,799685968.5403725,0,-0.3500004,100.769,1,0.7,0
2026-05-05T16:59:30.602+02:00,1777993168.999466,53.23565803650313,10.40152943729329,25.23766,0.4196503,1.487839,-1,-1,5.582828087996303,2.000234277390156,-9999,3079.257782166667,-0.023193359375,-0.6216583251953125,-0.768890380859375,3079.247709166667,-0.01235359092954072,0.02780553651013583,-0.01582770962870729,0.007802156265825033,0.04421672970056534,0.01212344132363796,0.09444739669561386,-0.02602523565292358,0.05263006687164307,XArbitraryZVertical,-0.007826987612633646,0.01395049603830367,-0.006285983304919336,0.9998523308775004,-0.07491617649793625,-0.5993562340736389,-0.7969690561294556,0,0,0,-1,-1,3066.798037375,unknown,2,2026-05-05T16:59:18.138+02:00,2026-05-05T16:12:27.330+02:00,1618,1.315207,0,0,1418.052,0,0,2026-05-05T16:59:25.874+02:00,799685968.5403725,0,-0.3500004,100.769,1,0.7,0
2026-05-05T16:59:30.612+02:00,1777993168.999466,53.23565803650313,10.40152943729329,25.23766,0.4196503,1.487839,-1,-1,5.582828087996303,2.000234277390156,-9999,3079.267854166667,-0.0361480712890625,-0.6067962646484375,-0.8148956298828125,3079.257782166667,-0.01237816839639988,0.02812159844423252,-0.01554853303921892,0.05003110319375992,0.003428819822147489,-0.01596944406628609,0.07430299371480942,-0.02789145708084106,0.06728702783584595,XArbitraryZVertical,-0.007686252774661073,0.01410775055139542,-0.006297550922068265,0.9998511920097882,-0.07465396076440811,-0.5995804667472839,-0.7968249917030334,0,0,0,-1,-1,3066.798037375,unknown,2,2026-05-05T16:59:18.138+02:00,2026-05-05T16:12:27.330+02:00,1618,1.315207,0,0,1418.052,0,0,2026-05-05T16:59:25.874+02:00,799685968.5403725,0,-0.3500004,100.769,1,0.7,0
2026-05-05T16:59:30.623+02:00,1777993168.999466,53.23565803650313,10.40152943729329,25.23766,0.4196503,1.487839,-1,-1,5.582828087996303,2.000234277390156,-9999,3079.277927166667,-0.0220947265625,-0.5865325927734375,-0.8294677734375,3079.267854166667,-0.0127581268334267,0.02772388982585073,-0.01474143458002823,0.1025641858577728,-0.0878148078918457,-0.0469450056552887,0.0515584796667099,-0.02140003442764282,0.02741497755050659,XArbitraryZVertical,-0.007281371480433893,0.01390785427581687,-0.006480399671312407,0.9998558517767514,-0.07475186884403229,-0.6002582907676697,-0.7963053584098816,0,0,0,-1,-1,3066.798037375,unknown,2,2026-05-05T16:59:18.138+02:00,2026-05-05T16:12:27.330+02:00,1618,1.315207,0,0,1418.052,0,0,2026-05-05T16:59:25.874+02:00,799685968.5403725,0,-0.3500004,100.769,1,0.7,0
2026-05-05T16:59:30.633+02:00,1777993168.999466,53.23565803650313,10.40152943729329,25.23766,0.4196503,1.487839,-1,-1,5.582828087996303,2.000234277390156,-9999,3079.288000166667,-0.0001983642578125,-0.591217041015625,-0.826080322265625,3079.277927166667,-0.01329662002846247,0.02649022613463923,-0.01364187285357521,0.1177482008934021,-0.1570269018411636,-0.04964198917150497,0.03927417099475861,-0.005613386631011963,-0.01935136318206787,XArbitraryZVertical,-0.006732081842237336,0.01328946736729881,-0.006737861636297933,0.9998663757594285,-0.0754222497344017,-0.6011828780174255,-0.7955442667007446,0,0,0,-1,-1,3066.798037375,unknown,2,2026-05-05T16:59:18.138+02:00,2026-05-05T16:12:27.330+02:00,1618,1.315207,0,0,1418.052,0,0,2026-05-05T16:59:25.874+02:00,799685968.5403725,0,-0.3500004,100.769,1,0.7,0
2026-05-05T16:59:30.643+02:00,1777993168.999466,53.23565803650313,10.40152943729329,25.23766,0.4196503,1.487839,-1,-1,5.582828087996303,2.000234277390156,-9999,3079.298072166667,0.0011444091796875,-0.6025390625,-0.80615234375,3079.288000166667,-0.01389730744781018,0.02489946660313071,-0.01223431378882005,0.1696207821369171,-0.151543453335762,-0.06052219867706299,0.05424652993679047,0.01582413911819458,-0.03489971160888672,XArbitraryZVertical,-0.006029992069136872,0.01249137900890748,-0.007024081253432945,0.9998792310537504,-0.07634126394987106,-0.6023567318916321,-0.7945680618286133,0,0,0,-1,-1,3066.798037375,unknown,2,2026-05-05T16:59:18.138+02:00,2026-05-05T16:12:27.330+02:00,1618,1.315207,0,0,1418.052,0,0,2026-05-05T16:59:25.874+02:00,799685968.5403725,0,-0.3500004,100.769,1,0.7,0
2026-05-05T16:59:30.654+02:00,1777993168.999466,53.23565803650313,10.40152943729329,25.23766,0.4196503,1.487839,-1,-1,5.582828087996303,2.000234277390156,-9999,3079.308145166667,0.001953125,-0.6033172607421875,-0.7626190185546875,3079.298072166667,-0.01459449445975343,0.0237183874761829,-0.0104256791073095,0.1781735271215439,-0.08453139662742615,-0.06157813966274261,0.07668051868677139,0.01263874769210815,-0.03270280361175537,XArbitraryZVertical,-0.005125774713729183,0.0118964741436392,-0.00735838630164825,0.9998891003379894,-0.07687892019748688,-0.6038557887077332,-0.7933775186538696,0,0,0,-1,-1,3066.798037375,unknown,2,2026-05-05T16:59:18.138+02:00,2026-05-05T16:12:27.330+02:00,1618,1.315207,0,0,1418.052,0,0,2026-05-05T16:59:25.874+02:00,799685968.5403725,0,-0.3500004,100.769,1,0.7,0
2026-05-05T16:59:30.663+02:00,1777993168.999466,53.23565803650313,10.40152943729329,25.23766,0.4196503,1.487839,-1,-1,5.582828087996303,2.000234277390156,-9999,3079.318217166667,0.00567626953125,-0.619354248046875,-0.7497711181640625,3079.308145166667,-0.01526294600135046,0.02323167993424327,-0.008821890473888755,0.1358367800712585,-0.02212207950651646,-0.05856257677078247,0.07802287489175797,0.002648830413818359,-0.01379048824310303,XArbitraryZVertical,-0.004321862440530768,0.01164878617119777,-0.007682043445921537,0.9998933563903308,-0.07687850296497345,-0.6051878929138184,-0.792361855506897,0,0,0,-1,-1,3066.798037375,unknown,2,2026-05-05T16:59:18.138+02:00,2026-05-05T16:12:27.330+02:00,1618,1.315207,0,0,1418.052,0,0,2026-05-05T16:59:25.874+02:00,799685968.5403725,0,-0.3500004,100.769,1,0.7,0
2026-05-05T16:59:30.673+02:00,1777993168.999466,53.23565803650313,10.40152943729329,25.23766,0.4196503,1.487839,-1,-1,5.582828087996303,2.000234277390156,-9999,3079.328290166667,0.0019989013671875,-0.6307373046875,-0.740264892578125,3079.318217166667,-0.0158674338252447,0.02320594596316452,-0.007696942798122642,0.09269701689481735,0.01804291643202305,-0.0536959171295166,0.07849783450365067,0.00281679630279541,0.02905166149139404,XArbitraryZVertical,-0.003756030794075356,0.01163279194856729,-0.007977692195930291,0.9998934440137299,-0.07654473185539246,-0.6061340570449829,-0.7916706204414368,0,0,0,-1,-1,3066.798037375,unknown,2,2026-05-05T16:59:18.138+02:00,2026-05-05T16:12:27.330+02:00,1618,1.315207,0,0,1418.052,0,0,2026-05-05T16:59:25.874+02:00,799685968.5403725,0,-0.3500004,100.769,1,0.7,0
2026-05-05T16:59:30.683+02:00,1777993168.999466,53.23565803650313,10.40152943729329,25.23766,0.4196503,1.487839,-1,-1,5.582828087996303,2.000234277390156,-9999,3079.338363166667,-0.01019287109375,-0.6353759765625,-0.756622314453125,3079.328290166667,-0.01637611956412326,0.02366921218735845,-0.006810705987021205,0.08220150321722031,0.0543881431221962,-0.03574221953749657,0.08155561238527298,-0.01247233152389526,0.04139053821563721,XArbitraryZVertical,-0.003308095179683133,0.01186174519892865,-0.008227645908311584,0.9998903441207104,-0.07587934285402298,-0.606881856918335,-0.7911615967750549,0,0,0,-1,-1,3066.798037375,unknown,2,2026-05-05T16:59:18.138+02:00,2026-05-05T16:12:27.330+02:00,1618,1.315207,0,0,1418.052,0,0,2026-05-05T16:59:25.874+02:00,799685968.5403725,0,-0.3500004,100.769,1,0.7,0
2026-05-05T16:59:30.693+02:00,1777993168.999466,53.23565803650313,10.40152943729329,25.23766,0.4196503,1.487839,-1,-1,5.582828087996303,2.000234277390156,-9999,3079.348435166667,-0.017059326171875,-0.6344146728515625,-0.769927978515625,3079.338363166667,-0.01678669865522485,0.02388557809677333,-0.006150446660416167,0.04274197667837143,-0.02229039184749126,-0.03871164098381996,0.07746531814336777,-0.02329570055007935,0.050506591796875,XArbitraryZVertical,-0.002974654732392373,0.01196783655036514,-0.008429336553036309,0.9998884870590949,-0.07546643167734146,-0.6074416041374207,-0.790771484375,0,0,0,-1,-1,3066.798037375,unknown,2,2026-05-05T16:59:18.138+02:00,2026-05-05T16:12:27.330+02:00,1618,1.315207,0,0,1418.052,0,0,2026-05-05T16:59:25.874+02:00,799685968.5403725,0,-0.3500004,100.769,1,0.7,0
2026-05-05T16:59:30.703+02:00,1777993169.999454,53.23565804408984,10.40152937264306,25.23862,0.3067442,1.646409,-1,-1,5.394615767516216,2.000160579459646,-9999,3079.358508166667,-0.0159759521484375,-0.6183319091796875,-0.7510223388671875,3079.348435166667,-0.017347017942599,0.02331062053038914,-0.00612815980518222,-0.039776761084795,-0.09195202589035034,-0.06275079399347305,0.06538549810647964,-0.02786397933959961,0.03408443927764893,XArbitraryZVertical,-0.002962663105263557,0.01168112643499983,-0.008708480252864919,0.9998895453967286,-0.07557839900255203,-0.6075119972229004,-0.7907067537307739,0,0,0,-1,-1,3066.798037375,unknown,2,2026-05-05T16:59:18.138+02:00,2026-05-05T16:12:27.330+02:00,1618,1.315207,0,0,1418.052,0,0,2026-05-05T16:59:25.874+02:00,799685968.5403725,0,-0.3500004,100.769,1,0.7,0
2026-05-05T16:59:30.713+02:00,1777993169.999454,53.23565804408984,10.40152937264306,25.23862,0.3067442,1.646409,-1,-1,5.394615767516216,2.000160579459646,-9999,3079.368580166667,-0.0196533203125,-0.6197967529296875,-0.75494384765625,3079.358508166667,-0.0179801928673183,0.02244927974549119,-0.006829046706504342,-0.09531965106725693,-0.07093542069196701,-0.05755417421460152,0.05880287289619446,-0.02739626169204712,0.02113062143325806,XArbitraryZVertical,-0.003313257005304439,0.01125457923960268,-0.009027680644711357,0.999890458531144,-0.07586222887039185,-0.6070183515548706,-0.7910585403442383,0,0,0,-1,-1,3066.798037375,unknown,2,2026-05-05T16:59:18.138+02:00,2026-05-05T16:12:27.330+02:00,1618,1.315207,0,0,1418.052,0,0,2026-05-05T16:59:25.874+02:00,799685968.5403725,0,-0.3500004,100.769,1,0.7,0
2026-05-05T16:59:30.723+02:00,1777993169.999454,53.23565804408984,10.40152937264306,25.23862,0.3067442,1.646409,-1,-1,5.394615767516216,2.000160579459646,-9999,3079.378653166667,-0.024566650390625,-0.627197265625,-0.7791900634765625,3079.368580166667,-0.01855047594712935,0.02211959777659232,-0.007811496519569004,-0.09043386578559875,0.003933488857001066,-0.05570293962955475,0.0597846731543541,-0.01203590631484985,0.04059970378875732,XArbitraryZVertical,-0.00380275352764246,0.01109523721304979,-0.009317660888719751,0.9998878058531292,-0.07576065510511398,-0.6062960028648376,-0.7916220426559448,0,0,0,-1,-1,3066.798037375,unknown,2,2026-05-05T16:59:18.138+02:00,2026-05-05T16:12:27.330+02:00,1618,1.315207,0,0,1418.052,0,0,2026-05-05T16:59:25.874+02:00,799685968.5403725,0,-0.3500004,100.769,1,0.7,0
2026-05-05T16:59:30.733+02:00,1777993169.999454,53.23565804408984,10.40152937264306,25.23862,0.3067442,1.646409,-1,-1,5.394615767516216,2.000160579459646,-9999,3079.388726166667,-0.02093505859375,-0.6249542236328125,-0.8020782470703125,3079.378653166667,-0.0192124276122004,0.02234171452311172,-0.008667800838975148,-0.08311523497104645,0.02302329428493977,-0.07479780912399292,0.05551455914974213,-0.01411563158035278,0.03720521926879883,XArbitraryZVertical,-0.004226111621657251,0.01121163328792033,-0.009653786196663947,0.9998816451383253,-0.07516789436340332,-0.6056811213493347,-0.7921490669250488,0,0,0,-1,-1,3066.798037375,unknown,2,2026-05-05T16:59:18.138+02:00,2026-05-05T16:12:27.330+02:00,1618,1.315207,0,0,1418.052,0,0,2026-05-05T16:59:25.874+02:00,799685968.5403725,0,-0.3500004,100.769,1,0.7,0
2026-05-05T16:59:30.743+02:00,1777993169.999454,53.23565804408984,10.40152937264306,25.23862,0.3067442,1.646409,-1,-1,5.394615767516216,2.000160579459646,-9999,3079.398798166667,-0.0032501220703125,-0.62518310546875,-0.7947235107421875,3079.388726166667,-0.0201107654645081,0.02236848442795315,-0.009504855763802231,-0.08362139016389847,-0.02228879369795322,-0.09667094796895981,0.05001852661371231,-0.0220947265625,0.01345616579055786,XArbitraryZVertical,-0.004639416265454481,0.01123110104081898,-0.01010761933060083,0.9998750630010489,-0.0745851919054985,-0.6051024794578552,-0.7926461696624756,0,0,0,-1,-1,3066.798037375,unknown,2,2026-05-05T16:59:18.138+02:00,2026-05-05T16:12:27.330+02:00,1618,1.315207,0,0,1418.052,0,0,2026-05-05T16:59:25.874+02:00,799685968.5403725,0,-0.3500004,100.769,1,0.7,0
2026-05-05T16:59:30.753+02:00,1777993169.999454,53.23565804408984,10.40152937264306,25.23862,0.3067442,1.646409,-1,-1,5.394615767516216,2.000160579459646,-9999,3079.408871166667,0.0041046142578125,-0.6394500732421875,-0.7845001220703125,3079.398798166667,-0.02115489706359877,0.02212416881185043,-0.01019302732146581,-0.04678055644035339,-0.02660870738327503,-0.1058077216148376,0.05319502204656601,-0.02029991149902344,-0.009047389030456543,XArbitraryZVertical,-0.00497889182726449,0.01111499914929094,-0.01063283956303324,0.9998693641963052,-0.0741301104426384,-0.6046543121337891,-0.793030858039856,0,0,0,-1,-1,3066.798037375,unknown,2,2026-05-05T16:59:18.138+02:00,2026-05-05T16:12:27.330+02:00,1618,1.315207,0,0,1418.052,0,0,2026-05-05T16:59:25.874+02:00,799685968.5403725,0,-0.3500004,100.769,1,0.7,0
2026-05-05T16:59:30.763+02:00,1777993169.999454,53.23565804408984,10.40152937264306,25.23862,0.3067442,1.646409,-1,-1,5.394615767516216,2.000160579459646,-9999,3079.418944166667,0.0038299560546875,-0.6458282470703125,-0.774566650390625,3079.408871166667,-0.02224327877442008,0.02187241591588336,-0.01042500592643588,0.006764322519302368,-0.01919686421751976,-0.1052413955330849,0.07040976732969284,-0.02061307430267334,-0.001584649085998535,XArbitraryZVertical,-0.005090223423594014,0.01099313193661888,-0.01117759429169396,0.9998641228405839,-0.07365991920232773,-0.6045700311660767,-0.793138861656189,0,0,0,-1,-1,3066.798037375,unknown,2,2026-05-05T16:59:18.138+02:00,2026-05-05T16:12:27.330+02:00,1618,1.315207,0,0,1418.052,0,0,2026-05-05T16:59:25.874+02:00,799685968.5403725,0,-0.3500004,100.769,1,0.7,0
2026-05-05T16:59:30.773+02:00,1777993169.999454,53.23565804408984,10.40152937264306,25.23862,0.3067442,1.646409,-1,-1,5.394615767516216,2.000160579459646,-9999,3079.429016166667,0.0090484619140625,-0.6349945068359375,-0.7555084228515625,3079.418944166667,-0.02332887338165515,0.02177068184952614,-0.01034462991181118,0.001048113685101271,-0.01245906669646502,-0.1037369817495346,0.07718110084533691,-0.03471797704696655,0.008569240570068359,XArbitraryZVertical,-0.005044669402687542,0.01094456695047618,-0.01171962251698434,0.9998586846987503,-0.0730765089392662,-0.6047320365905762,-0.7930693030357361,0,0,0,-1,-1,3066.798037375,unknown,2,2026-05-05T16:59:18.138+02:00,2026-05-05T16:12:27.330+02:00,1618,1.315207,0,0,1418.052,0,0,2026-05-05T16:59:25.874+02:00,799685968.5403725,0,-0.3500004,100.769,1,0.7,0
2026-05-05T16:59:30.784+02:00,1777993169.999454,53.23565804408984,10.40152937264306,25.23862,0.3067442,1.646409,-1,-1,5.394615767516216,2.000160579459646,-9999,3079.439089166667,0.01617431640625,-0.634735107421875,-0.746917724609375,3079.429016166667,-0.02436962769702113,0.02161790195548353,-0.01046184805274596,-0.01933028735220432,-0.02882285974919796,-0.09882611036300659,0.07638830691576004,-0.04109519720077515,0.01854956150054932,XArbitraryZVertical,-0.005098508730269203,0.01087152215710169,-0.01224016872805303,0.9998530178233346,-0.07255836576223373,-0.6047329902648926,-0.7931161522865295,0,0,0,-1,-1,3066.798037375,unknown,2,2026-05-05T16:59:18.138+02:00,2026-05-05T16:12:27.330+02:00,1618,1.315207,0,0,1418.052,0,0,2026-05-05T16:59:25.874+02:00,799685968.5403725,0,-0.3500004,100.769,1,0.7,0
2026-05-05T16:59:30.794+02:00,1777993169.999454,53.23565804408984,10.40152937264306,25.23862,0.3067442,1.646409,-1,-1,5.394615767516216,2.000160579459646,-9999,3079.449161166667,0.012847900390625,-0.6404266357421875,-0.7462005615234375,3079.439089166667,-0.02539530280868452,0.02119063864608896,-0.01061660169379332,-0.01192084141075611,-0.05360810086131096,-0.09934435784816742,0.0813150554895401,-0.03029227256774902,0.03765791654586792,XArbitraryZVertical,-0.00517302223156844,0.01066151432687253,-0.01275265540848131,0.9998484984553336,-0.0722666010260582,-0.6047021746635437,-0.7931662797927856,0,0,0,-1,-1,3066.798037375,unknown,2,2026-05-05T16:59:18.138+02:00,2026-05-05T16:12:27.330+02:00,1618,1.315207,0,0,1418.052,0,0,2026-05-05T16:59:25.874+02:00,799685968.5403725,0,-0.3500004,100.769,1,0.7,0
2026-05-05T16:59:30.812+02:00,1777993169.999454,53.23565804408984,10.40152937264306,25.23862,0.3067442,1.646409,-1,-1,5.394615767516216,2.000160579459646,-9999,3079.459234166667,0.007232666015625,-0.63458251953125,-0.73876953125,3079.449161166667,-0.02641127991488053,0.02076125274749878,-0.01080872732899458,-0.03200762718915939,-0.03215207904577255,-0.09987060725688934,0.08815625309944153,-0.03009480237960815,0.04632169008255005,XArbitraryZVertical,-0.005266500512860123,0.0104507448519545,-0.01326044605811616,0.9998436121258854,-0.07198195904493332,-0.6046402454376221,-0.7932393550872803,0,0,0,-1,-1,3066.798037375,unknown,2,2026-05-05T16:59:18.138+02:00,2026-05-05T16:12:27.330+02:00,1618,1.315207,0,0,1418.052,0,0,2026-05-05T16:59:25.874+02:00,799685968.5403725,0,-0.3500004,100.769,1,0.7,0
2026-05-05T16:59:30.814+02:00,1777993169.999454,53.23565804408984,10.40152937264306,25.23862,0.3067442,1.646409,-1,-1,5.394615767516216,2.000160579459646,-9999,3079.469307166667,0.00225830078125,-0.626953125,-0.7620086669921875,3079.459234166667,-0.0274658652251669,0.02073606003771304,-0.01117730442254821,-0.02302931249141693,0.01963229104876518,-0.1049620360136032,0.08419863879680634,-0.03598529100418091,0.04724740982055664,XArbitraryZVertical,-0.005445421701467849,0.01044344662119307,-0.01378948525514821,0.9998355297802238,-0.07135075330734253,-0.6044413447380066,-0.7934479713439941,0,0,0,-1,-1,3066.798037375,unknown,2,2026-05-05T16:59:18.138+02:00,2026-05-05T16:12:27.330+02:00,1618,1.315207,0,0,1418.052,0,0,2026-05-05T16:59:25.874+02:00,799685968.5403725,0,-0.3500004,100.769,1,0.7,0
2026-05-05T16:59:30.824+02:00,1777993169.999454,53.23565804408984,10.40152937264306,25.23862,0.3067442,1.646409,-1,-1,5.394615767516216,2.000160579459646,-9999,3079.479379166667,0.0135955810546875,-0.6273193359375,-0.8169097900390625,3079.469307166667,-0.02853771759136488,0.02090989047454331,-0.01110296929980198,0.0297356303781271,-0.01081056986004114,-0.1049116402864456,0.07778920233249664,-0.02998846769332886,0.05463314056396484,XArbitraryZVertical,-0.005401417093449441,0.01053273432505065,-0.01432540678960327,0.9998274142916991,-0.07055654376745224,-0.6045940518379211,-0.7934026718139648,0,0,0,-1,-1,3066.798037375,unknown,2,2026-05-05T16:59:18.138+02:00,2026-05-05T16:12:27.330+02:00,1618,1.315207,0,0,1418.052,0,0,2026-05-05T16:59:25.874+02:00,799685968.5403725,0,-0.3500004,100.769,1,0.7,0
2026-05-05T16:59:30.834+02:00,1777993169.999454,53.23565804408984,10.40152937264306,25.23862,0.3067442,1.646409,-1,-1,5.394615767516216,2.000160579459646,-9999,3079.489452166667,0.02667236328125,-0.624755859375,-0.8245391845703125,3079.479379166667,-0.02965342703545986,0.02034061301146901,-0.01087313311001334,0.01390100829303265,-0.09723067283630371,-0.1112925708293915,0.07258506119251251,-0.02208024263381958,0.03120189905166626,XArbitraryZVertical,-0.005284878659715137,0.01024946077979431,-0.01488046698303608,0.9998228928423791,-0.07032677531242371,-0.6048728823661804,-0.7932105660438538,0,0,0,-1,-1,3066.798037375,unknown,2,2026-05-05T16:59:18.138+02:00,2026-05-05T16:12:27.330+02:00,1618,1.315207,0,0,1418.052,0,0,2026-05-05T16:59:25.874+02:00,799685968.5403725,0,-0.3500004,100.769,1,0.7,0
2026-05-05T16:59:30.844+02:00,1777993169.999454,53.23565804408984,10.40152937264306,25.23862,0.3067442,1.646409,-1,-1,5.394615767516216,2.000160579459646,-9999,3079.499525166667,0.0210113525390625,-0.6264190673828125,-0.819915771484375,3079.489452166667,-0.03085647621767202,0.01941198998283526,-0.01048894989553511,0.08095956593751907,-0.0758976936340332,-0.1165139004588127,0.08392547070980072,-0.02203887701034546,-0.02401047945022583,XArbitraryZVertical,-0.00509384324631183,0.009785458692134373,-0.01547758149641896,0.9998194493116352,-0.07032990455627441,-0.6052804589271545,-0.7928993105888367,0,0,0,-1,-1,3066.798037375,unknown,2,2026-05-05T16:59:18.138+02:00,2026-05-05T16:12:27.330+02:00,1618,1.315207,0,0,1418.052,0,0,2026-05-05T16:59:25.874+02:00,799685968.5403725,0,-0.3500004,100.769,1,0.7,0
2026-05-05T16:59:30.854+02:00,1777993169.999454,53.23565804408984,10.40152937264306,25.23862,0.3067442,1.646409,-1,-1,5.394615767516216,2.000160579459646,-9999,3079.509597166667,0.0286102294921875,-0.629241943359375,-0.8279266357421875,3079.499525166667,-0.03195646620040341,0.01887614169263578,-0.009260065610991306,0.1524388045072556,-0.04628946632146835,-0.0918319895863533,0.09676630795001984,-0.01840943098068237,-0.03243386745452881,XArbitraryZVertical,-0.004478425238474765,0.009510596955851229,-0.01602036103186024,0.9998164981027766,-0.07009397447109222,-0.6063464283943176,-0.7921053171157837,0,0,0,-1,-1,3066.798037375,unknown,2,2026-05-05T16:59:18.138+02:00,2026-05-05T16:12:27.330+02:00,1618,1.315207,0,0,1418.052,0,0,2026-05-05T16:59:25.874+02:00,799685968.5403725,0,-0.3500004,100.769,1,0.7,0
2026-05-05T16:59:30.864+02:00,1777993169.999454,53.23565804408984,10.40152937264306,25.23862,0.3067442,1.646409,-1,-1,5.394615767516216,2.000160579459646,-9999,3079.519670166667,0.0347137451171875,-0.6324005126953125,-0.8029937744140625,3079.509597166667,-0.03290602224283372,0.0183593959088586,-0.007607412513510619,0.17998868227005,-0.05905826017260551,-0.09018315374851227,0.0909503847360611,-0.01868629455566406,-0.02885979413986206,XArbitraryZVertical,-0.003651998110886689,0.0092408362635983,-0.01648636687817452,0.9998147974391116,-0.06993905454874039,-0.6077327132225037,-0.7910559177398682,0,0,0,-1,-1,3066.798037375,unknown,2,2026-05-05T16:59:18.138+02:00,2026-05-05T16:12:27.330+02:00,1618,1.315207,0,0,1418.052,0,0,2026-05-05T16:59:25.874+02:00,799685968.5403725,0,-0.3500004,100.769,1,0.7,0
2026-05-05T16:59:30.874+02:00,1777993169.999454,53.23565804408984,10.40152937264306,25.23862,0.3067442,1.646409,-1,-1,5.394615767516216,2.000160579459646,-9999,3079.529742166667,0.020751953125,-0.6272735595703125,-0.79144287109375,3079.519670166667,-0.03385293232607104,0.01782536670578547,-0.005728803776625126,0.180532768368721,-0.0571298636496067,-0.07638584822416306,0.098410964012146,-0.01994723081588745,-0.03806096315383911,XArbitraryZVertical,-0.002713023403168781,0.008959731670756163,-0.01695044114664849,0.99981253862471,-0.06980076432228088,-0.6092947125434875,-0.7898656725883484,0,0,0,-1,-1,3066.798037375,unknown,2,2026-05-05T16:59:18.138+02:00,2026-05-05T16:12:27.330+02:00,1618,1.315207,0,0,1418.052,0,0,2026-05-05T16:59:25.874+02:00,799685968.5403725,0,-0.3500004,100.769,1,0.7,0
2026-05-05T16:59:30.884+02:00,1777993169.999454,53.23565804408984,10.40152937264306,25.23862,0.3067442,1.646409,-1,-1,5.394615767516216,2.000160579459646,-9999,3079.539815166667,0.009979248046875,-0.613861083984375,-0.78070068359375,3079.529742166667,-0.03460624625334802,0.01748391433189646,-0.004397918955533074,0.1035486087203026,-0.02061180211603642,-0.06734368205070496,0.1043360233306885,-0.02199393510818481,-0.01397126913070679,XArbitraryZVertical,-0.002047291116471496,0.008778561135580032,-0.01732077600066091,0.9998093977296989,-0.06962230801582336,-0.6104065775871277,-0.7890225052833557,0,0,0,-1,-1,3066.798037375,unknown,2,2026-05-05T16:59:18.138+02:00,2026-05-05T16:12:27.330+02:00,1618,1.315207,0,0,1418.052,0,0,2026-05-05T16:59:25.874+02:00,799685968.5403725,0,-0.3500004,100.769,1,0.7,0
2026-05-05T16:59:30.894+02:00,1777993169.999454,53.23565804408984,10.40152937264306,25.23862,0.3067442,1.646409,-1,-1,5.394615767516216,2.000160579459646,-9999,3079.549888166667,-0.0039825439453125,-0.629486083984375,-0.778839111328125,3079.539815166667,-0.03536401397945762,0.01728142621346809,-0.003073002966481666,0.1588595360517502,-0.02178385853767395,-0.07118716090917587,0.09008287638425827,-0.01576089859008789,-0.003251612186431885,XArbitraryZVertical,-0.001383428184308699,0.008666410265883146,-0.01769367812912771,0.9998049821917321,-0.06933093816041946,-0.6115126609802246,-0.7881912589073181,0,0,0,-1,-1,3066.798037375,unknown,2,2026-05-05T16:59:18.138+02:00,2026-05-05T16:12:27.330+02:00,1618,1.315207,0,0,1418.052,0,0,2026-05-05T16:59:25.874+02:00,799685968.5403725,0,-0.3500004,100.769,1,0.7,0
2026-05-05T16:59:30.904+02:00,1777993169.999454,53.23565804408984,10.40152937264306,25.23862,0.3067442,1.646409,-1,-1,5.394615767516216,2.000160579459646,-9999,3079.559960166667,-0.0030364990234375,-0.63275146484375,-0.76513671875,3079.549888166667,-0.03610589561879944,0.0169453480945683,-0.001624555995132871,0.112885057926178,-0.05436443910002708,-0.0616266094148159,0.07913466542959213,-0.001147925853729248,0.006573200225830078,XArbitraryZVertical,-0.0006591698250315704,0.008485851519897707,-0.01805819334846525,0.9998007611629298,-0.06915543228387833,-0.6127131581306458,-0.7872738242149353,0,0,0,-1,-1,3066.798037375,unknown,2,2026-05-05T16:59:18.138+02:00,2026-05-05T16:12:27.330+02:00,1618,1.315207,0,0,1418.052,0,0,2026-05-05T16:59:25.874+02:00,799685968.5403725,0,-0.3500004,100.769,1,0.7,0
2026-05-05T16:59:30.916+02:00,1777993169.999454,53.23565804408984,10.40152937264306,25.23862,0.3067442,1.646409,-1,-1,5.394615767516216,2.000160579459646,-9999,3079.570033166667,-0.0014495849609375,-0.6247406005859375,-0.7568817138671875,3079.559960166667,-0.03673111805375048,0.01643530440128172,-0.0007731099525209932,0.07192324101924896,-0.04496854171156883,-0.06048358604311943,0.06519912928342819,-0.0160524845123291,0.007871270179748535,XArbitraryZVertical,-0.0002355651441377412,0.008223272002245374,-0.01836708133157069,0.9997974570408508,-0.06918168812990189,-0.6134335398674011,-0.7867103219032288,0,0,0,-1,-1,3066.798037375,unknown,2,2026-05-05T16:59:18.138+02:00,2026-05-05T16:12:27.330+02:00,1618,1.315207,0,0,1418.052,0,0,2026-05-05T16:59:25.874+02:00,799685968.5403725,0,-0.3500004,100.769,1,0.7,0
2026-05-05T16:59:30.925+02:00,1777993169.999454,53.23565804408984,10.40152937264306,25.23862,0.3067442,1.646409,-1,-1,5.394615767516216,2.000160579459646,-9999,3079.580106166667,-0.00360107421875,-0.6226806640625,-0.7712249755859375,3079.570033166667,-0.03736744885147466,0.01591542961680713,-3.447223847107926e-05,0.07038777321577072,-0.0694376677274704,-0.05399419367313385,0.06617066264152527,-0.01868575811386108,0.02107810974121094,XArbitraryZVertical,0.0001314369672688766,0.007956563957723338,-0.01868218306708239,0.9997938018623781,-0.06920718401670456,-0.6140657067298889,-0.7862147688865662,0,0,0,-1,-1,3066.798037375,unknown,2,2026-05-05T16:59:18.138+02:00,2026-05-05T16:12:27.330+02:00,1618,1.315207,0,0,1418.052,0,0,2026-05-05T16:59:25.874+02:00,799685968.5403725,0,-0.3500004,100.769,1,0.7,0
2026-05-05T16:59:30.935+02:00,1777993169.999454,53.23565804408984,10.40152937264306,25.23862,0.3067442,1.646409,-1,-1,5.394615767516216,2.000160579459646,-9999,3079.590178166667,0.006988525390625,-0.62908935546875,-0.773345947265625,3079.580106166667,-0.03783595821246853,0.01527706330799198,0.0007700369099397031,0.08951592445373535,-0.05590907111763954,-0.03068061359226704,0.06797933578491211,-0.01000529527664185,0.02879011631011963,XArbitraryZVertical,0.0005294338583890248,0.007629806779335919,-0.01891335680716959,0.9997918843308329,-0.0694289356470108,-0.6147352457046509,-0.7856717705726624,0,0,0,-1,-1,3066.798037375,unknown,2,2026-05-05T16:59:18.138+02:00,2026-05-05T16:12:27.330+02:00,1618,1.315207,0,0,1418.052,0,0,2026-05-05T16:59:25.874+02:00,799685968.5403725,0,-0.3500004,100.769,1,0.7,0
2026-05-05T16:59:30.945+02:00,1777993169.999454,53.23565804408984,10.40152937264306,25.23862,0.3067442,1.646409,-1,-1,5.394615767516216,2.000160579459646,-9999,3079.600251166667,0.0106353759765625,-0.629791259765625,-0.7819061279296875,3079.590178166667,-0.03801736657912844,0.01508137250461759,0.001737802235894608,0.1047280132770538,0.00538411270827055,0.005989981815218925,0.06587917357683182,-0.007171630859375,0.01383626461029053,XArbitraryZVertical,0.001012047745223812,0.007522734105459747,-0.01900043923912429,0.9997907091486761,-0.06948027014732361,-0.615509033203125,-0.785061240196228,0,0,0,-1,-1,3066.798037375,unknown,2,2026-05-05T16:59:18.138+02:00,2026-05-05T16:12:27.330+02:00,1618,1.315207,0,0,1418.052,0,0,2026-05-05T16:59:25.874+02:00,799685968.5403725,0,-0.3500004,100.769,1,0.7,0
2026-05-05T16:59:30.955+02:00,1777993169.999454,53.23565804408984,10.40152937264306,25.23862,0.3067442,1.646409,-1,-1,5.394615767516216,2.000160579459646,-9999,3079.610323166667,0.011199951171875,-0.625274658203125,-0.8165283203125,3079.600251166667,-0.0378704438269284,0.01509806430643579,0.003008282788792511,0.1437827348709106,-0.02919969707727432,0.03032781183719635,0.0765576958656311,-0.01259684562683105,0.01093536615371704,XArbitraryZVertical,0.001646760845117093,0.007519119808400043,-0.01892217656000051,0.999791343826116,-0.06956919282674789,-0.6164924502372742,-0.7842812538146973,0,0,0,-1,-1,3066.798037375,unknown,2,2026-05-05T16:59:18.138+02:00,2026-05-05T16:12:27.330+02:00,1618,1.315207,0,0,1418.052,0,0,2026-05-05T16:59:25.874+02:00,799685968.5403725,0,-0.3500004,100.769,1,0.7,0
2026-05-05T16:59:30.965+02:00,1777993169.999454,53.23565804408984,10.40152937264306,25.23862,0.3067442,1.646409,-1,-1,5.394615767516216,2.000160579459646,-9999,3079.620396166667,0.0077056884765625,-0.616455078125,-0.824005126953125,3079.610323166667,-0.03768269305179195,0.01407990329187193,0.004504802526960021,0.1441598832607269,-0.181208148598671,0.01537775807082653,0.08113133907318115,-0.01214271783828735,0.001382231712341309,XArbitraryZVertical,0.002384576512588214,0.006996191057187745,-0.01882386225610974,0.9997955484302053,-0.07049598544836044,-0.6176485419273376,-0.7832883596420288,0,0,0,-1,-1,3066.798037375,unknown,2,2026-05-05T16:59:18.138+02:00,2026-05-05T16:12:27.330+02:00,1618,1.315207,0,0,1418.052,0,0,2026-05-05T16:59:25.874+02:00,799685968.5403725,0,-0.3500004,100.769,1,0.7,0
2026-05-05T16:59:30.975+02:00,1777993169.999454,53.23565804408984,10.40152937264306,25.23862,0.3067442,1.646409,-1,-1,5.394615767516216,2.000160579459646,-9999,3079.630469166667,-0.0045928955078125,-0.614410400390625,-0.7846832275390625,3079.620396166667,-0.03771824102304931,0.01213898586582142,0.006051653055523127,0.1667922288179398,-0.1830441206693649,-0.009274591691792011,0.08320586383342743,-0.006413936614990234,-0.03433483839035034,XArbitraryZVertical,0.003139685103953879,0.006011288147656051,-0.01883920545970894,0.9997996128473073,-0.07200593501329422,-0.6188607215881348,-0.7821934819221497,0,0,0,-1,-1,3066.798037375,unknown,2,2026-05-05T16:59:18.138+02:00,2026-05-05T16:12:27.330+02:00,1618,1.315207,0,0,1418.052,0,0,2026-05-05T16:59:25.874+02:00,799685968.5403725,0,-0.3500004,100.769,1,0.7,0
2026-05-05T16:59:30.985+02:00,1777993169.999454,53.23565804408984,10.40152937264306,25.23862,0.3067442,1.646409,-1,-1,5.394615767516216,2.000160579459646,-9999,3079.640541166667,-0.018585205078125,-0.6240386962890625,-0.73846435546875,3079.630469166667,-0.03793556663014071,0.01094457136409414,0.007757393574686238,0.1675131469964981,-0.05682253465056419,-0.01770169846713543,0.08052391558885574,0.003754973411560059,-0.04295647144317627,XArbitraryZVertical,0.003981720761030381,0.005397668098881048,-0.01894499736217457,0.9997980603831984,-0.07281824201345444,-0.6202100515365601,-0.7810486555099487,0,0,0,-1,-1,3066.798037375,unknown,2,2026-05-05T16:59:18.138+02:00,2026-05-05T16:12:27.330+02:00,1618,1.315207,0,0,1418.052,0,0,2026-05-05T16:59:25.874+02:00,799685968.5403725,0,-0.3500004,100.769,1,0.7,0
2026-05-05T16:59:30.995+02:00,1777993169.999454,53.23565804408984,10.40152937264306,25.23862,0.3067442,1.646409,-1,-1,5.394615767516216,2.000160579459646,-9999,3079.650614166667,-0.012786865234375,-0.633056640625,-0.72491455078125,3079.640541166667,-0.03811518585687702,0.01087920358577722,0.009506357477689159,0.1716362535953522,0.02124430239200592,-0.006436527241021395,0.06817790865898132,0.007177948951721191,-0.004726529121398926,XArbitraryZVertical,0.00485588471219697,0.005347948314517004,-0.01903008998670984,0.999792905541988,-0.07277081906795502,-0.6215883493423462,-0.7799566388130188,0,0,0,-1,-1,3066.798037375,unknown,2,2026-05-05T16:59:18.138+02:00,2026-05-05T16:12:27.330+02:00,1618,1.315207,0,0,1418.052,0,0,2026-05-05T16:59:25.874+02:00,799685968.5403725,0,-0.3500004,100.769,1,0.7,0
2026-05-05T16:59:31.005+02:00,1777993169.999454,53.23565804408984,10.40152937264306,25.23862,0.3067442,1.646409,-1,-1,5.394615767516216,2.000160579459646,-9999,3079.660687166667,-0.00396728515625,-0.6236724853515625,-0.724212646484375,3079.650614166667,-0.03817057103125002,0.01106363530304851,0.01093211247149878,0.1019149124622345,-0.009393235668540001,0.006546116434037685,0.05401753634214401,-0.001335680484771729,0.04061830043792725,XArbitraryZVertical,0.005570517256863902,0.005426386152309024,-0.01905331685548025,0.9997883066533609,-0.0726027712225914,-0.6227030158042908,-0.7790826559066772,0,0,0,-1,-1,3066.798037375,unknown,2,2026-05-05T16:59:18.138+02:00,2026-05-05T16:12:27.330+02:00,1618,1.315207,0,0,1418.052,0,0,2026-05-05T16:59:25.874+02:00,799685968.5403725,0,-0.3500004,100.769,1,0.7,0
2026-05-05T16:59:31.015+02:00,1777993169.999454,53.23565804408984,10.40152937264306,25.23862,0.3067442,1.646409,-1,-1,5.394615767516216,2.000160579459646,-9999,3079.670759166667,-0.0046844482421875,-0.6214599609375,-0.725799560546875,3079.660687166667,-0.03810664293326178,0.01050434759918939,0.0116036727389013,0.03550047054886818,-0.1090348735451698,0.01427833829075098,0.06029525399208069,-0.009836316108703613,0.05370950698852539,XArbitraryZVertical,0.005900733425217239,0.005140572164390497,-0.01902111738116299,0.9997885302535029,-0.07308214157819748,-0.6232203245162964,-0.7786240577697754,0,0,0,-1,-1,3066.798037375,unknown,2,2026-05-05T16:59:18.138+02:00,2026-05-05T16:12:27.330+02:00,1618,1.315207,0,0,1418.052,0,0,2026-05-05T16:59:25.874+02:00,799685968.5403725,0,-0.3500004,100.769,1,0.7,0
2026-05-05T16:59:31.025+02:00,1777993169.999454,53.23565804408984,10.40152937264306,25.23862,0.3067442,1.646409,-1,-1,5.394615767516216,2.000160579459646,-9999,3079.680832166667,-0.023956298828125,-0.6251220703125,-0.7312164306640625,3079.670759166667,-0.03796553286288122,0.009198619299140388,0.01181889590414817,0.003735509468242526,-0.1432674080133438,0.01727379485964775,0.07021933048963547,-0.0002962350845336914,0.05418211221694946,XArbitraryZVertical,0.005995586296837633,0.004486214969250399,-0.018953918034065,0.999792418775361,-0.07418664544820786,-0.6233762502670288,-0.7783947587013245,0,0,0,-1,-1,3066.798037375,unknown,2,2026-05-05T16:59:18.138+02:00,2026-05-05T16:12:27.330+02:00,1618,1.315207,0,0,1418.052,0,0,2026-05-05T16:59:25.874+02:00,799685968.5403725,0,-0.3500004,100.769,1,0.7,0
2026-05-05T16:59:31.035+02:00,1777993169.999454,53.23565804408984,10.40152937264306,25.23862,0.3067442,1.646409,-1,-1,5.394615767516216,2.000160579459646,-9999,3079.690904166667,-0.03973388671875,-0.6079864501953125,-0.739501953125,3079.680832166667,-0.0378772251179554,0.008019251407441875,0.01176635693518126,-0.008684674277901649,-0.09036345034837723,0.002076200442388654,0.07047408819198608,0.001868188381195068,0.05254048109054565,XArbitraryZVertical,0.005957972559311304,0.00389741528658572,-0.01891341449815914,0.9997958346507584,-0.07515856623649597,-0.6233281493186951,-0.7783400416374207,0,0,0,-1,-1,3066.798037375,unknown,2,2026-05-05T16:59:18.138+02:00,2026-05-05T16:12:27.330+02:00,1618,1.315207,0,0,1418.052,0,0,2026-05-05T16:59:25.874+02:00,799685968.5403725,0,-0.3500004,100.769,1,0.7,0
2026-05-05T16:59:31.045+02:00,1777993169.999454,53.23565804408984,10.40152937264306,25.23862,0.3067442,1.646409,-1,-1,5.394615767516216,2.000160579459646,-9999,3079.700977166667,-0.0410614013671875,-0.5967559814453125,-0.762969970703125,3079.690904166667,-0.03800396017193155,0.007496734962076718,0.01177670378102425,0.009542425163090229,-0.02666277065873146,-0.02554650604724884,0.05153114348649979,-0.001775562763214111,0.04707705974578857,XArbitraryZVertical,0.005958433901440524,0.00363573469233375,-0.01897830525937632,0.9997955776361075,-0.07548746466636658,-0.6233465075492859,-0.7782934904098511,0,0,0,-1,-1,3066.798037375,unknown,2,2026-05-05T16:59:18.138+02:00,2026-05-05T16:12:27.330+02:00,1618,1.315207,0,0,1418.052,0,0,2026-05-05T16:59:25.874+02:00,799685968.5403725,0,-0.3500004,100.769,1,0.7,0
2026-05-05T16:59:31.055+02:00,1777993169.999454,53.23565804408984,10.40152937264306,25.23862,0.3067442,1.646409,-1,-1,5.394615767516216,2.000160579459646,-9999,3079.711050166667,-0.027740478515625,-0.604217529296875,-0.7826690673828125,3079.700977166667,-0.03833903465770991,0.007426600183811117,0.01200814802119315,0.03323044627904892,0.001696699764579535,-0.03183742612600327,0.03560344129800797,0.01556724309921265,0.03864020109176636,XArbitraryZVertical,0.006074069819232268,0.003597455744703956,-0.01914557508725223,0.9997917801280369,-0.07533733546733856,-0.6235536336898804,-0.7781420946121216,0,0,0,-1,-1,3066.798037375,unknown,2,2026-05-05T16:59:18.138+02:00,2026-05-05T16:12:27.330+02:00,1618,1.315207,0,0,1418.052,0,0,2026-05-05T16:59:25.874+02:00,799685968.5403725,0,-0.3500004,100.769,1,0.7,0
2026-05-05T16:59:31.065+02:00,1777993169.999454,53.23565804408984,10.40152937264306,25.23862,0.3067442,1.646409,-1,-1,5.394615767516216,2.000160579459646,-9999,3079.721122166667,0.002471923828125,-0.61663818359375,-0.776763916015625,3079.711050166667,-0.03861632575061497,0.007500750589872504,0.0125236004985514,0.06278194487094879,0.00210682675242424,-0.01588801853358746,0.03405031561851501,0.02722090482711792,0.01485466957092285,XArbitraryZVertical,0.006332954844942442,0.003628699201067422,-0.01928296924280756,0.9997874320308104,-0.0751117467880249,-0.6239768266677856,-0.7778245806694031,0,0,0,-1,-1,3066.798037375,unknown,2,2026-05-05T16:59:18.138+02:00,2026-05-05T16:12:27.330+02:00,1618,1.315207,0,0,1418.052,0,0,2026-05-05T16:59:25.874+02:00,799685968.5403725,0,-0.3500004,100.769,1,0.7,0
2026-05-05T16:59:31.076+02:00,1777993169.999454,53.23565804408984,10.40152937264306,25.23862,0.3067442,1.646409,-1,-1,5.394615767516216,2.000160579459646,-9999,3079.731195166667,0.0178070068359375,-0.629669189453125,-0.7556610107421875,3079.721122166667,-0.03870401124655101,0.007408985132334656,0.01319922681498323,0.06287861615419388,-0.02934377267956734,0.002134923124685884,0.04739189147949219,0.02029138803482056,-0.005273580551147461,XArbitraryZVertical,0.006669967551670681,0.003576003759500803,-0.01932579987144546,0.9997846106708855,-0.07513239979743958,-0.6245089173316956,-0.777395486831665,0,0,0,-1,-1,3066.798037375,unknown,2,2026-05-05T16:59:18.138+02:00,2026-05-05T16:12:27.330+02:00,1618,1.315207,0,0,1418.052,0,0,2026-05-05T16:59:25.874+02:00,799685968.5403725,0,-0.3500004,100.769,1,0.7,0
2026-05-05T16:59:31.086+02:00,1777993169.999454,53.23565804408984,10.40152937264306,25.23862,0.3067442,1.646409,-1,-1,5.394615767516216,2.000160579459646,-9999,3079.741268166667,0.005096435546875,-0.6270294189453125,-0.740814208984375,3079.731195166667,-0.03874524082871043,0.007119405548539907,0.01370173185546118,0.02962026372551918,-0.0341571718454361,-0.006872153840959072,0.07780631631612778,0.008264362812042236,0.0002956390380859375,XArbitraryZVertical,0.006918437990434225,0.003426234678296483,-0.01934644876885802,0.9997830510716835,-0.07533442229032516,-0.6249025464057922,-0.7770595550537109,0,0,0,-1,-1,3066.798037375,unknown,2,2026-05-05T16:59:18.138+02:00,2026-05-05T16:12:27.330+02:00,1618,1.315207,0,0,1418.052,0,0,2026-05-05T16:59:25.874+02:00,799685968.5403725,0,-0.3500004,100.769,1,0.7,0
2026-05-05T16:59:31.096+02:00,1777993169.999454,53.23565804408984,10.40152937264306,25.23862,0.3067442,1.646409,-1,-1,5.394615767516216,2.000160579459646,-9999,3079.751340166667,-0.001617431640625,-0.6154022216796875,-0.745208740234375,3079.741268166667,-0.03890028739239412,0.006832608599027934,0.0138714313525929,0.00495885917916894,-0.03502696007490158,-0.01986305415630341,0.09326977282762527,-0.004622280597686768,0.02126997709274292,XArbitraryZVertical,0.007000748807135292,0.003280678759419259,-0.01942464459366246,0.9997815184783988,-0.07546278834342957,-0.6250469088554382,-0.7769309878349304,0,0,0,-1,-1,3066.798037375,unknown,2,2026-05-05T16:59:18.138+02:00,2026-05-05T16:12:27.330+02:00,1618,1.315207,0,0,1418.052,0,0,2026-05-05T16:59:25.874+02:00,799685968.5403725,0,-0.3500004,100.769,1,0.7,0
2026-05-05T16:59:31.106+02:00,1777993169.999454,53.23565804408984,10.40152937264306,25.23862,0.3067442,1.646409,-1,-1,5.394615767516216,2.000160579459646,-9999,3079.761413166667,0.0025482177734375,-0.6275177001953125,-0.7452850341796875,3079.751340166667,-0.03920936908051691,0.006343931642382435,0.01389791929316451,-0.005098036024719477,-0.07212479412555695,-0.03519540280103683,0.08074913173913956,-0.001936972141265869,0.03606170415878296,XArbitraryZVertical,0.007009712423551826,0.003035052425430212,-0.01958081720073565,0.9997792107473623,-0.07565271854400635,-0.6250924468040466,-0.776875913143158,0,0,0,-1,-1,3066.798037375,unknown,2,2026-05-05T16:59:18.138+02:00,2026-05-05T16:12:27.330+02:00,1618,1.315207,0,0,1418.052,0,0,2026-05-05T16:59:25.874+02:00,799685968.5403725,0,-0.3500004,100.769,1,0.7,0
2026-05-05T16:59:31.116+02:00,1777993169.999454,53.23565804408984,10.40152937264306,25.23862,0.3067442,1.646409,-1,-1,5.394615767516216,2.000160579459646,-9999,3079.771485166667,-0.00177001953125,-0.6424102783203125,-0.7391204833984375,3079.761413166667,-0.03961801969581058,0.005545464356158337,0.01370940974994372,-0.03394912555813789,-0.08898526430130005,-0.03817867487668991,0.07440389692783356,0.009576678276062012,0.03172248601913452,XArbitraryZVertical,0.006908199454382714,0.002636344824874447,-0.01978816857084823,0.9997769515998041,-0.07602133601903915,-0.6249788999557495,-0.7769312262535095,0,0,0,-1,-1,3066.798037375,unknown,2,2026-05-05T16:59:18.138+02:00,2026-05-05T16:12:27.330+02:00,1618,1.315207,0,0,1418.052,0,0,2026-05-05T16:59:25.874+02:00,799685968.5403725,0,-0.3500004,100.769,1,0.7,0
2026-05-05T16:59:31.126+02:00,1777993169.999454,53.23565804408984,10.40152937264306,25.23862,0.3067442,1.646409,-1,-1,5.394615767516216,2.000160579459646,-9999,3079.78155825,-0.004608154296875,-0.64263916015625,-0.741485595703125,3079.771485166667,-0.0399738692426967,0.00486929172973747,0.01340524086065329,-0.02857390604913235,-0.04912413656711578,-0.02596495486795902,0.07887531816959381,-0.002746522426605225,0.0317833423614502,XArbitraryZVertical,0.00674986833429529,0.002300147971629591,-0.01996878049144531,0.999775181356521,-0.0763271227478981,-0.6247711181640625,-0.7770683169364929,0,0,0,-1,-1,3066.798037375,unknown,2,2026-05-05T16:59:18.138+02:00,2026-05-05T16:12:27.330+02:00,1618,1.315207,0,0,1418.052,0,0,2026-05-05T16:59:25.874+02:00,799685968.5403725,0,-0.3500004,100.769,1,0.7,0
2026-05-05T16:59:31.136+02:00,1777993169.999454,53.23565804408984,10.40152937264306,25.23862,0.3067442,1.646409,-1,-1,5.394615767516216,2.000160579459646,-9999,3079.79163125,-0.0083160400390625,-0.6377410888671875,-0.73675537109375,3079.78155825,-0.0402506981598624,0.004579971302184059,0.01309966157089091,-0.04002230241894722,-0.01920725032687187,-0.02942360192537308,0.07461095601320267,-0.01785439252853394,0.03811556100845337,XArbitraryZVertical,0.006594523173317321,0.002157663397651515,-0.02010851071841924,0.9997737038653817,-0.07638100534677505,-0.6245558857917786,-0.7772359848022461,0,0,0,-1,-1,3066.798037375,unknown,2,2026-05-05T16:59:18.138+02:00,2026-05-05T16:12:27.330+02:00,1618,1.315207,0,0,1418.052,0,0,2026-05-05T16:59:25.874+02:00,799685968.5403725,0,-0.3500004,100.769,1,0.7,0
2026-05-05T16:59:31.146+02:00,1777993169.999454,53.23565804408984,10.40152937264306,25.23862,0.3067442,1.646409,-1,-1,5.394615767516216,2.000160579459646,-9999,3079.80170325,-0.011322021484375,-0.6365966796875,-0.7309112548828125,3079.79163125,-0.04066442998523438,0.00447322279414503,0.01256991167434877,-0.06636097282171249,-0.01065291091799736,-0.04589885100722313,0.07160017639398575,-0.01846170425415039,0.03607141971588135,XArbitraryZVertical,0.006329070046647982,0.002108325724831276,-0.02031630507154782,0.9997714788770928,-0.07620836049318314,-0.6241774559020996,-0.7775569558143616,0,0,0,-1,-1,3066.798037375,unknown,2,2026-05-05T16:59:18.138+02:00,2026-05-05T16:12:27.330+02:00,1618,1.315207,0,0,1418.052,0,0,2026-05-05T16:59:25.874+02:00,799685968.5403725,0,-0.3500004,100.769,1,0.7,0
2026-05-05T16:59:31.156+02:00,1777993169.999454,53.23565804408984,10.40152937264306,25.23862,0.3067442,1.646409,-1,-1,5.394615767516216,2.000160579459646,-9999,3079.81177625,-0.0073089599609375,-0.63922119140625,-0.74530029296875,3079.80170325,-0.0411733769519741,0.004363908336397897,0.01189420713099167,-0.06816046684980392,-0.01841948740184307,-0.04819875583052635,0.06766277551651001,-0.01404851675033569,0.04121303558349609,XArbitraryZVertical,0.005990708916696795,0.002059029858650852,-0.02057184626204757,0.999768386436118,-0.07597882300615311,-0.6236925721168518,-0.7779684066772461,0,0,0,-1,-1,3066.798037375,unknown,2,2026-05-05T16:59:18.138+02:00,2026-05-05T16:12:27.330+02:00,1618,1.315207,0,0,1418.052,0,0,2026-05-05T16:59:25.874+02:00,799685971.1151979,0,-0.3400002,100.769,1,0.7,0
2026-05-05T16:59:31.166+02:00,1777993169.999454,53.23565804408984,10.40152937264306,25.23862,0.3067442,1.646409,-1,-1,5.394615767516216,2.000160579459646,-9999,3079.82184925,-0.009796142578125,-0.647857666015625,-0.76885986328125,3079.81177625,-0.0416749449222936,0.00421163986084717,0.01117627694670519,-0.07554173469543457,-0.0217825286090374,-0.0488668754696846,0.06446518748998642,-0.01342290639877319,0.04749143123626709,XArbitraryZVertical,0.005630759731074218,0.0019888948901094,-0.02082382728836478,0.9997653623445368,-0.07578722387552261,-0.6231737732887268,-0.7784026861190796,0,0,0,-1,-1,3066.798037375,unknown,2,2026-05-05T16:59:18.138+02:00,2026-05-05T16:12:27.330+02:00,1618,1.315207,0,0,1418.052,0,0,2026-05-05T16:59:25.874+02:00,799685971.1151979,0,-0.3400002,100.769,1,0.7,0
2026-05-05T16:59:31.176+02:00,1777993169.999454,53.23565804408984,10.40152937264306,25.23862,0.3067442,1.646409,-1,-1,5.394615767516216,2.000160579459646,-9999,3079.83192125,-0.00433349609375,-0.6451873779296875,-0.79351806640625,3079.82184925,-0.04226082366320718,0.003842868786514098,0.0104175586214838,-0.07224208116531372,-0.0662008598446846,-0.05940686911344528,0.06840347498655319,-0.01659166812896729,0.03354507684707642,XArbitraryZVertical,0.00524818007281935,0.00181092333909026,-0.02111850626503904,0.9997616354773246,-0.07571246474981308,-0.6226295232772827,-0.7788453698158264,0,0,0,-1,-1,3066.798037375,unknown,2,2026-05-05T16:59:18.138+02:00,2026-05-05T16:12:27.330+02:00,1618,1.315207,0,0,1418.052,0,0,2026-05-05T16:59:25.874+02:00,799685971.1151979,0,-0.3400002,100.769,1,0.7,0
2026-05-05T16:59:31.186+02:00,1777993169.999454,53.23565804408984,10.40152937264306,25.23862,0.3067442,1.646409,-1,-1,5.394615767516216,2.000160579459646,-9999,3079.84199425,0.0171661376953125,-0.6449737548828125,-0.7989959716796875,3079.83192125,-0.0428882900666285,0.002720411028756894,0.009824124910194488,-0.04876450449228287,-0.1722204983234406,-0.05960281193256378,0.06640388816595078,-0.02564096450805664,0.01026785373687744,XArbitraryZVertical,0.004940074039580245,0.001254549442599781,-0.0214355405843868,0.9997573615429652,-0.07620006054639816,-0.6222167015075684,-0.7791277170181274,0,0,0,-1,-1,3066.798037375,unknown,2,2026-05-05T16:59:18.138+02:00,2026-05-05T16:12:27.330+02:00,1618,1.315207,0,0,1418.052,0,0,2026-05-05T16:59:25.874+02:00,799685971.1151979,0,-0.3400002,100.769,1,0.7,0
2026-05-05T16:59:31.197+02:00,1777993169.999454,53.23565804408984,10.40152937264306,25.23862,0.3067442,1.646409,-1,-1,5.394615767516216,2.000160579459646,-9999,3079.85206725,0.013580322265625,-0.6521148681640625,-0.7724609375,3079.84199425,-0.0434636576141511,0.0007192093001308603,0.00941386821050659,-0.04271140694618225,-0.2173307240009308,-0.04642336070537567,0.07307181507349014,-0.02324533462524414,-0.01428985595703125,XArbitraryZVertical,0.004713618678215759,0.0002572338914764273,-0.02172818174519739,0.999752871387526,-0.07740531861782074,-0.6219420433044434,-0.779228150844574,0,0,0,-1,-1,3066.798037375,unknown,2,2026-05-05T16:59:18.138+02:00,2026-05-05T16:12:27.330+02:00,1618,1.315207,0,0,1418.052,0,0,2026-05-05T16:59:25.874+02:00,799685971.1151979,0,-0.3400002,100.769,1,0.7,0
2026-05-05T16:59:31.207+02:00,1777993169.999454,53.23565804408984,10.40152937264306,25.23862,0.3067442,1.646409,-1,-1,5.394615767516216,2.000160579459646,-9999,3079.86213925,-0.0057220458984375,-0.640228271484375,-0.7657012939453125,3079.85206725,-0.04395400882507538,-0.001272044268207049,0.008858494572236046,-0.06224760785698891,-0.1844201683998108,-0.04749834537506104,0.09582199156284332,-0.023426353931427,-0.01957815885543823,XArbitraryZVertical,0.004414185173178358,-0.0007331955625819985,-0.02197782902266616,0.9997485690254062,-0.07865587621927261,-0.6215474009513855,-0.7794178128242493,0,0,0,-1,-1,3066.798037375,unknown,2,2026-05-05T16:59:18.138+02:00,2026-05-05T16:12:27.330+02:00,1618,1.315207,0,0,1418.052,0,0,2026-05-05T16:59:25.874+02:00,799685971.1151979,0,-0.3400002,100.769,1,0.7,0
2026-05-05T16:59:31.217+02:00,1777993169.999454,53.23565804408984,10.40152937264306,25.23862,0.3067442,1.646409,-1,-1,5.394615767516216,2.000160579459646,-9999,3079.87221225,-0.0142974853515625,-0.6316070556640625,-0.7861328125,3079.86213925,-0.04448654029665111,-0.002966062670456879,0.008381562498686193,-0.03286468610167503,-0.1683565229177475,-0.0590471439063549,0.0932299792766571,-0.03089809417724609,0.007119536399841309,XArbitraryZVertical,0.004156742921279485,-0.001575859386764254,-0.022247427925397,0.9997426934049756,-0.0796496644616127,-0.6212167739868164,-0.7795804738998413,0,0,0,-1,-1,3066.798037375,unknown,2,2026-05-05T16:59:18.138+02:00,2026-05-05T16:12:27.330+02:00,1618,1.315207,0,0,1418.052,0,0,2026-05-05T16:59:25.874+02:00,799685971.1151979,0,-0.3400002,100.769,1,0.7,0
2026-05-05T16:59:31.227+02:00,1777993169.999454,53.23565804408984,10.40152937264306,25.23862,0.3067442,1.646409,-1,-1,5.394615767516216,2.000160579459646,-9999,3079.88228425,-0.010772705078125,-0.635162353515625,-0.798492431640625,3079.87221225,-0.04526169035636681,-0.004544536113828743,0.008290569729876514,0.01885709911584854,-0.1485622972249985,-0.08264987170696259,0.07468181848526001,-0.01902270317077637,0.01381063461303711,XArbitraryZVertical,0.004092782150701121,-0.002365467382004224,-0.02263807621708626,0.999732601655668,-0.0804038941860199,-0.6212055683135986,-0.7795119285583496,0,0,0,-1,-1,3066.798037375,unknown,2,2026-05-05T16:59:18.138+02:00,2026-05-05T16:12:27.330+02:00,1618,1.315207,0,0,1418.052,0,0,2026-05-05T16:59:25.874+02:00,799685971.1151979,0,-0.3400002,100.769,1,0.7,0
2026-05-05T16:59:31.237+02:00,1777993169.999454,53.23565804408984,10.40152937264306,25.23862,0.3067442,1.646409,-1,-1,5.394615767516216,2.000160579459646,-9999,3079.89235725,0.0065460205078125,-0.63543701171875,-0.8004302978515625,3079.88228425,-0.04607187712151434,-0.00597302011255524,0.008423937508501378,-0.009933537803590298,-0.1555315256118774,-0.07116126269102097,0.06672125309705734,-0.0102354884147644,-0.006816864013671875,XArbitraryZVertical,0.004142029755768312,-0.003082704116393299,-0.02304616989579343,0.9997210692158293,-0.08101876825094223,-0.6213715672492981,-0.7793159484863281,0,0,0,-1,-1,3066.798037375,unknown,2,2026-05-05T16:59:18.138+02:00,2026-05-05T16:12:27.330+02:00,1618,1.315207,0,0,1418.052,0,0,2026-05-05T16:59:25.874+02:00,799685971.1151979,0,-0.3400002,100.769,1,0.7,0
2026-05-05T16:59:31.247+02:00,1777993169.999454,53.23565804408984,10.40152937264306,25.23862,0.3067442,1.646409,-1,-1,5.394615767516216,2.000160579459646,-9999,3079.90243025,0.01068115234375,-0.6396331787109375,-0.782928466796875,3079.89235725,-0.04673185435493599,-0.00754929360508408,0.00814826870411482,-0.03445421904325485,-0.1617918312549591,-0.0569140836596489,0.07106992602348328,-0.01395541429519653,-0.01913130283355713,XArbitraryZVertical,0.003984792367054004,-0.00386876202405465,-0.02337881224677236,0.9997113628682314,-0.08184264600276947,-0.6212069392204285,-0.7793611288070679,0,0,0,-1,-1,3066.798037375,unknown,2,2026-05-05T16:59:18.138+02:00,2026-05-05T16:12:27.330+02:00,1618,1.315207,0,0,1418.052,0,0,2026-05-05T16:59:25.874+02:00,799685971.1151979,0,-0.3400002,100.769,1,0.7,0
2026-05-05T16:59:31.257+02:00,1777993169.999454,53.23565804408984,10.40152937264306,25.23862,0.3067442,1.646409,-1,-1,5.394615767516216,2.000160579459646,-9999,3079.91250225,-0.0124359130859375,-0.6397857666015625,-0.78033447265625,3079.90243025,-0.04729050048941576,-0.008948303254948872,0.007974095412503502,-0.006632975302636623,-0.1194275990128517,-0.045633465051651,0.08913639932870865,-0.01432359218597412,-0.02107352018356323,XArbitraryZVertical,0.003880100900441488,-0.004567114654072702,-0.02366045310400654,0.9997022114341174,-0.08259039372205734,-0.6211134791374207,-0.7793567776679993,0,0,0,-1,-1,3066.798037375,unknown,2,2026-05-05T16:59:18.138+02:00,2026-05-05T16:12:27.330+02:00,1618,1.315207,0,0,1418.052,0,0,2026-05-05T16:59:25.874+02:00,799685971.1151979,0,-0.3400002,100.769,1,0.7,0
2026-05-05T16:59:31.267+02:00,1777993169.999454,53.23565804408984,10.40152937264306,25.23862,0.3067442,1.646409,-1,-1,5.394615767516216,2.000160579459646,-9999,3079.92257525,-0.0193634033203125,-0.6313934326171875,-0.7912139892578125,3079.91250225,-0.0476499375340835,-0.009931836199612498,0.007921742281414196,-0.01322893332690001,-0.09240076690912247,-0.02513977512717247,0.09381731599569321,-0.01853352785110474,-0.003618717193603516,XArbitraryZVertical,0.003841387615719726,-0.00505880669778425,-0.02384189784404011,0.9996955646623769,-0.0831361711025238,-0.621099591255188,-0.7793096899986267,0,0,0,-1,-1,3066.798037375,unknown,2,2026-05-05T16:59:18.138+02:00,2026-05-05T16:12:27.330+02:00,1618,1.315207,0,0,1418.052,0,0,2026-05-05T16:59:25.874+02:00,799685971.1151979,0,-0.3400002,100.769,1,0.7,0
2026-05-05T16:59:31.277+02:00,1777993169.999454,53.23565804408984,10.40152937264306,25.23862,0.3067442,1.646409,-1,-1,5.394615767516216,2.000160579459646,-9999,3079.93264825,-0.0218658447265625,-0.632080078125,-0.80450439453125,3079.92257525,-0.04798814080095944,-0.01097656503485962,0.007779644360650879,-0.0173520389944315,-0.1295127123594284,-0.03608456999063492,0.07130739092826843,-0.01877152919769287,-0.001021683216094971,XArbitraryZVertical,0.003756962173855383,-0.005579955721112837,-0.02401256728637448,0.9996890325844753,-0.08374331146478653,-0.6210142374038696,-0.7793127298355103,0,0,0,-1,-1,3066.798037375,unknown,2,2026-05-05T16:59:18.138+02:00,2026-05-05T16:12:27.330+02:00,1618,1.315207,0,0,1418.052,0,0,2026-05-05T16:59:25.874+02:00,799685971.1151979,0,-0.3400002,100.769,1,0.7,0
2026-05-05T16:59:31.287+02:00,1777993169.999454,53.23565804408984,10.40152937264306,25.23862,0.3067442,1.646409,-1,-1,5.394615767516216,2.000160579459646,-9999,3079.94272025,-0.019287109375,-0.6200714111328125,-0.818206787109375,3079.93264825,-0.04843424328394422,-0.01267065849112807,0.007513985264545359,-0.04059818387031555,-0.2187147587537766,-0.04927074164152145,0.06542778760194778,-0.01055294275283813,-0.01187610626220703,XArbitraryZVertical,0.003602400254309203,-0.006424356731057996,-0.02423789083026654,0.9996791493887589,-0.08479121327400208,-0.6208404898643494,-0.7793378829956055,0,0,0,-1,-1,3066.798037375,unknown,2,2026-05-05T16:59:18.138+02:00,2026-05-05T16:12:27.330+02:00,1618,1.315207,0,0,1418.052,0,0,2026-05-05T16:59:25.874+02:00,799685971.1151979,0,-0.3400002,100.769,1,0.7,0
2026-05-05T16:59:31.297+02:00,1777993169.999454,53.23565804408984,10.40152937264306,25.23862,0.3067442,1.646409,-1,-1,5.394615767516216,2.000160579459646,-9999,3079.95279325,-0.00830078125,-0.612579345703125,-0.825775146484375,3079.94272025,-0.04912217228361389,-0.01545507528469132,0.007039486773923687,-0.06545933336019516,-0.3501665592193604,-0.0816851407289505,0.06467653065919876,-0.01155859231948853,-0.02510493993759155,XArbitraryZVertical,0.003328794792313771,-0.007811519172324876,-0.02458492089518036,0.9996617226194461,-0.08654240518808365,-0.6205214858055115,-0.7793994545936584,0,0,0,-1,-1,3066.798037375,unknown,2,2026-05-05T16:59:18.138+02:00,2026-05-05T16:12:27.330+02:00,1618,1.315207,0,0,1418.052,0,0,2026-05-05T16:59:25.874+02:00,799685971.1151979,0,-0.3400002,100.769,1,0.7,0
2026-05-05T16:59:31.307+02:00,1777993169.999454,53.23565804408984,10.40152937264306,25.23862,0.3067442,1.646409,-1,-1,5.394615767516216,2.000160579459646,-9999,3079.96286625,-0.001800537109375,-0.639556884765625,-0.8060455322265625,3079.95279325,-0.05015558222412871,-0.01975776919725085,0.006377841829403882,-0.06228159368038177,-0.4890807271003723,-0.1118132174015045,0.06998062133789062,1.013278961181641e-05,-0.0387645959854126,XArbitraryZVertical,0.002940047685051861,-0.009955525268313298,-0.02510530179465089,0.999631007376146,-0.08926774561405182,-0.6200815439224243,-0.7794421911239624,0,0,0,-1,-1,3066.798037375,unknown,2,2026-05-05T16:59:18.138+02:00,2026-05-05T16:12:27.330+02:00,1618,1.315207,0,0,1418.052,0,0,2026-05-05T16:59:25.874+02:00,799685971.1151979,0,-0.3400002,100.769,1,0.7,0
2026-05-05T16:59:31.317+02:00,1777993169.999454,53.23565804408984,10.40152937264306,25.23862,0.3067442,1.646409,-1,-1,5.394615767516216,2.000160579459646,-9999,3079.97293825,-0.014862060546875,-0.662384033203125,-0.8031768798828125,3079.96286625,-0.05129514810520765,-0.02434207913780156,0.006099278168321984,0.01573944091796875,-0.4202076494693756,-0.1006103605031967,0.08384261280298233,0.007368266582489014,-0.04656112194061279,XArbitraryZVertical,0.002736291290874344,-0.01224488090308521,-0.02567984728970569,0.9995914957142684,-0.09214340150356293,-0.619947612285614,-0.7792140245437622,0,0,0,-1,-1,3066.798037375,unknown,2,2026-05-05T16:59:18.138+02:00,2026-05-05T16:12:27.330+02:00,1618,1.315207,0,0,1418.052,0,0,2026-05-05T16:59:25.874+02:00,799685971.1151979,0,-0.3400002,100.769,1,0.7,0
2026-05-05T16:59:31.328+02:00,1777993169.999454,53.23565804408984,10.40152937264306,25.23862,0.3067442,1.646409,-1,-1,5.394615767516216,2.000160579459646,-9999,3079.98301125,-0.023101806640625,-0.6591339111328125,-0.8164825439453125,3079.97293825,-0.05227155748441639,-0.02828909251907067,0.00679713422528733,0.117718480527401,-0.3908623158931732,-0.09596161544322968,0.09280499070882797,-0.018993079662323,-0.02761733531951904,XArbitraryZVertical,0.003027437878298454,-0.01422796764131352,-0.02617809166346925,0.999551443728864,-0.09460552781820297,-0.6205637454986572,-0.7784281373023987,0,0,0,-1,-1,3066.798037375,unknown,2,2026-05-05T16:59:18.138+02:00,2026-05-05T16:12:27.330+02:00,1618,1.315207,0,0,1418.052,0,0,2026-05-05T16:59:25.874+02:00,799685971.1151979,0,-0.3400002,100.769,1,0.7,0
2026-05-05T16:59:31.338+02:00,1777993169.999454,53.23565804408984,10.40152937264306,25.23862,0.3067442,1.646409,-1,-1,5.394615767516216,2.000160579459646,-9999,3079.99308325,-0.020294189453125,-0.6364288330078125,-0.795440673828125,3079.98301125,-0.05332793369988495,-0.0324245137321569,0.008449525701823014,0.2055447548627853,-0.4325567483901978,-0.1225631386041641,0.08227885514497757,-0.04045450687408447,-0.02615219354629517,XArbitraryZVertical,0.003790484069659236,-0.01631825761643487,-0.02672552755144958,0.9995025614545052,-0.09714094549417496,-0.6219295859336853,-0.7770246863365173,0,0,0,-1,-1,3066.798037375,unknown,2,2026-05-05T16:59:18.138+02:00,2026-05-05T16:12:27.330+02:00,1618,1.315207,0,0,1418.052,0,0,2026-05-05T16:59:25.874+02:00,799685971.1151979,0,-0.3400002,100.769,1,0.7,0
2026-05-05T16:59:31.348+02:00,1777993169.999454,53.23565804408984,10.40152937264306,25.23862,0.3067442,1.646409,-1,-1,5.394615767516216,2.000160579459646,-9999,3080.00315625,-0.0311126708984375,-0.6322174072265625,-0.8027801513671875,3079.99308325,-0.05459823632075202,-0.03648851562367629,0.01105074654852056,0.2777658700942993,-0.3845831155776978,-0.1375801116228104,0.07635578513145447,-0.03508740663528442,-0.04145079851150513,XArbitraryZVertical,0.005024412084243381,-0.01838696277219654,-0.02739153043363821,0.9994430555358923,-0.09945761412382126,-0.6240465044975281,-0.7750316858291626,0,0,0,-1,-1,3066.798037375,unknown,2,2026-05-05T16:59:18.138+02:00,2026-05-05T16:12:27.330+02:00,1618,1.315207,0,0,1418.052,0,0,2026-05-05T16:59:25.874+02:00,799685971.1151979,0,-0.3400002,100.769,1,0.7,0
2026-05-05T16:59:31.358+02:00,1777993169.999454,53.23565804408984,10.40152937264306,25.23862,0.3067442,1.646409,-1,-1,5.394615767516216,2.000160579459646,-9999,3080.01322925,-0.01812744140625,-0.6255950927734375,-0.81414794921875,3080.00315625,-0.05588730652527987,-0.04053377199203023,0.01366525434630378,0.2261341214179993,-0.4446589648723602,-0.1319464594125748,0.0814388170838356,-0.01025879383087158,-0.02241963148117065,XArbitraryZVertical,0.006262298358596846,-0.02044797536749227,-0.0280720358326144,0.9993772040787805,-0.1017330214381218,-0.6261700391769409,-0.7730210423469543,0,0,0,-1,-1,3066.798037375,unknown,2,2026-05-05T16:59:18.138+02:00,2026-05-05T16:12:27.330+02:00,1618,1.315207,0,0,1418.052,0,0,2026-05-05T16:59:25.874+02:00,799685971.1151979,0,-0.3400002,100.769,1,0.7,0
