loggingTime(txt),locationTimestamp_since1970(s),locationLatitude(WGS84),locationLongitude(WGS84),locationAltitude(m),locationSpeed(m/s),locationSpeedAccuracy(m/s),locationCourse(°),locationCourseAccuracy(°),locationVerticalAccuracy(m),locationHorizontalAccuracy(m),locationFloor(Z),accelerometerTimestamp_sinceReboot(s),accelerometerAccelerationX(G),accelerometerAccelerationY(G),accelerometerAccelerationZ(G),motionTimestamp_sinceReboot(s),motionYaw(rad),motionRoll(rad),motionPitch(rad),motionRotationRateX(rad/s),motionRotationRateY(rad/s),motionRotationRateZ(rad/s),motionUserAccelerationX(G),motionUserAccelerationY(G),motionUserAccelerationZ(G),motionAttitudeReferenceFrame(txt),motionQuaternionX(R),motionQuaternionY(R),motionQuaternionZ(R),motionQuaternionW(R),motionGravityX(G),motionGravityY(G),motionGravityZ(G),motionMagneticFieldX(µT),motionMagneticFieldY(µT),motionMagneticFieldZ(µT),motionHeading(°),motionMagneticFieldCalibrationAccuracy(Z),activityTimestamp_sinceReboot(s),activity(txt),activityActivityConfidence(Z),activityActivityStartDate(txt),pedometerStartDate(txt),pedometerNumberofSteps(N),pedometerAverageActivePace(s/m),pedometerCurrentPace(s/m),pedometerCurrentCadence(steps/s),pedometerDistance(m),pedometerFloorAscended(N),pedometerFloorDescended(N),pedometerEndDate(txt),altimeterTimestamp_sinceReboot(s),altimeterReset(bool),altimeterRelativeAltitude(m),altimeterPressure(kPa),batteryState(N),batteryLevel(R)
2026-04-24T18:21:01.742+02:00,1777047653.571205,53.56895416345577,9.882977505173033,38.55946,-1,-1,-1,-1,9.056828472500998,2.789105338997707,-9999,3276.32563625,0.178680419921875,-0.52874755859375,-0.822235107421875,3276.31682525,0.04766885797968042,0.2060165668390649,0.5571673299952956,0.0327138751745224,0.02403227612376213,-0.02580740861594677,0.007299885153770447,0.001959145069122314,0.007794857025146484,XArbitraryZVertical,0.2711027568584332,0.1053527308531126,0.05106046803594387,0.9554040733095488,0.1736235916614532,-0.5287840962409973,-0.8308082222938538,0,0,0,-1,-1,3230.927795875,unknown,2,2026-04-24T18:20:16.323+02:00,null,0,0,0,0,0,0,0,null,798740460.2590986,0,0.75,101.556,1,0.85
2026-04-24T18:21:01.752+02:00,1777047653.571205,53.56895416345577,9.882977505173033,38.55946,-1,-1,-1,-1,9.056828472500998,2.789105338997707,-9999,3276.33571125,0.179443359375,-0.5276336669921875,-0.82012939453125,3276.32690025,0.04734583559269125,0.2063517143843256,0.5573638285283266,0.02393796294927597,0.01795813627541065,-0.02386117167770863,0.004799708724021912,0.0002033114433288574,0.008413136005401611,XArbitraryZVertical,0.2712052288433418,0.1054684842501299,0.05096067927321039,0.9553675569876858,0.1738807260990143,-0.5289508700370789,-0.8306482434272766,0,0,0,-1,-1,3230.927795875,unknown,2,2026-04-24T18:20:16.323+02:00,null,0,0,0,0,0,0,0,null,798740460.2590986,0,0.75,101.556,1,0.85
2026-04-24T18:21:01.761+02:00,1777047653.571205,53.56895416345577,9.882977505173033,38.55946,-1,-1,-1,-1,9.056828472500998,2.789105338997707,-9999,3276.34578625,0.18408203125,-0.5279083251953125,-0.8172149658203125,3276.33697525,0.04712116590313296,0.2065732186498151,0.5574973626363751,0.0167000237852335,0.01106800697743893,-0.01207075733691454,0.005393132567405701,0.001430511474609375,0.01041120290756226,XArbitraryZVertical,0.2712753234083815,0.1055434406649007,0.05088958425844241,0.9553431440632235,0.1740502268075943,-0.5290641784667969,-0.8305405378341675,0,0,0,-1,-1,3230.927795875,unknown,2,2026-04-24T18:20:16.323+02:00,null,0,0,0,0,0,0,0,null,798740460.2590986,0,0.75,101.556,1,0.85
2026-04-24T18:21:01.772+02:00,1777047653.571205,53.56895416345577,9.882977505173033,38.55946,-1,-1,-1,-1,9.056828472500998,2.789105338997707,-9999,3276.35586125,0.183349609375,-0.5316314697265625,-0.8155975341796875,3276.34705025,0.04698979344619498,0.2066864497408379,0.5575503912497134,0.007298798765987158,0.005621575750410557,-0.007750310935080051,0.009943529963493347,0.001200854778289795,0.01327842473983765,XArbitraryZVertical,0.2713047301855834,0.1055795461941487,0.05084464313464403,0.9553332404092491,0.1741385161876678,-0.5291091799736023,-0.8304933905601501,0,0,0,-1,-1,3230.927795875,unknown,2,2026-04-24T18:20:16.323+02:00,null,0,0,0,0,0,0,0,null,798740460.2590986,0,0.75,101.556,1,0.85
2026-04-24T18:21:01.782+02:00,1777047653.571205,53.56895416345577,9.882977505173033,38.55946,-1,-1,-1,-1,9.056828472500998,2.789105338997707,-9999,3276.36593625,0.178314208984375,-0.532501220703125,-0.814208984375,3276.35712525,0.04696453941672471,0.206684045488591,0.5574699582806772,-0.01039289962500334,0.0001988476142287254,-0.002261935500428081,0.009204372763633728,-0.002590537071228027,0.01493793725967407,XArbitraryZVertical,0.2712676492850468,0.1055752097112363,0.05082852454301776,0.9553451110557161,0.1741452515125275,-0.5290409326553345,-0.8305354714393616,0,0,0,-1,-1,3230.927795875,unknown,2,2026-04-24T18:20:16.323+02:00,null,0,0,0,0,0,0,0,null,798740460.2590986,0,0.75,101.556,1,0.85
2026-04-24T18:21:01.792+02:00,1777047653.571205,53.56895416345577,9.882977505173033,38.55946,-1,-1,-1,-1,9.056828472500998,2.789105338997707,-9999,3276.37601125,0.1780853271484375,-0.5301513671875,-0.815826416015625,3276.36720025,0.04704758759045427,0.2066208166859006,0.5573058558848512,-0.0190697442740202,-0.001964438240975142,0.007662600371986628,0.004203677177429199,-0.003599584102630615,0.01642251014709473,XArbitraryZVertical,0.271186365756991,0.1055567483503652,0.05085200970124629,0.955369010715349,0.174110546708107,-0.5289016366004944,-0.83063143491745,0,0,0,-1,-1,3230.927795875,unknown,2,2026-04-24T18:20:16.323+02:00,null,0,0,0,0,0,0,0,null,798740460.2590986,0,0.75,101.556,1,0.85
2026-04-24T18:21:01.802+02:00,1777047653.571205,53.56895416345577,9.882977505173033,38.55946,-1,-1,-1,-1,9.056828472500998,2.789105338997707,-9999,3276.38608625,0.1782989501953125,-0.5246429443359375,-0.8187713623046875,3276.37727525,0.04722141628802938,0.2065063909674636,0.5571171580571418,-0.01767328940331936,-0.003323715645819902,0.01003627572208643,0.004049375653266907,-0.00140988826751709,0.0149226188659668,XArbitraryZVertical,0.2710898606977661,0.1055262120968658,0.05091080137698462,0.9553965649407221,0.1740359514951706,-0.5287414789199829,-0.8307490348815918,0,0,0,-1,-1,3230.927795875,unknown,2,2026-04-24T18:20:16.323+02:00,null,0,0,0,0,0,0,0,null,798740460.2590986,0,0.75,101.556,1,0.85
2026-04-24T18:21:01.812+02:00,1777047653.571205,53.56895416345577,9.882977505173033,38.55946,-1,-1,-1,-1,9.056828472500998,2.789105338997707,-9999,3276.39616125,0.1783447265625,-0.52032470703125,-0.822113037109375,3276.38735025,0.04739586466803152,0.2063819570239505,0.5569517400634618,-0.018956134095788,-0.005392459686845541,0.01265096757560968,0.004348441958427429,0.003958165645599365,0.0120849609375,XArbitraryZVertical,0.2710046751628082,0.1054908738189871,0.05096960757161588,0.9554215680172374,0.1739505082368851,-0.5286011099815369,-0.8308562636375427,0,0,0,-1,-1,3230.927795875,unknown,2,2026-04-24T18:20:16.323+02:00,null,0,0,0,0,0,0,0,null,798740460.2590986,0,0.75,101.556,1,0.85
2026-04-24T18:21:01.822+02:00,1777047653.571205,53.56895416345577,9.882977505173033,38.55946,-1,-1,-1,-1,9.056828472500998,2.789105338997707,-9999,3276.40623625,0.176116943359375,-0.5188446044921875,-0.821380615234375,3276.39742525,0.04757081808837089,0.2062521273870133,0.5568164270194657,-0.01720968633890152,-0.003472320269793272,0.01419646665453911,0.004487454891204834,0.008161544799804688,0.008835852146148682,XArbitraryZVertical,0.2709340434815796,0.1054529411707461,0.05102934465914102,0.9554425434404521,0.1738572865724564,-0.5284861922264099,-0.8309488296508789,0,0,0,-1,-1,3230.927795875,unknown,2,2026-04-24T18:20:16.323+02:00,null,0,0,0,0,0,0,0,null,798740460.2590986,0,0.75,101.556,1,0.85
2026-04-24T18:21:01.832+02:00,1777047653.571205,53.56895416345577,9.882977505173033,38.55946,-1,-1,-1,-1,9.056828472500998,2.789105338997707,-9999,3276.41631125,0.173828125,-0.521148681640625,-0.823211669921875,3276.40750025,0.04775686412568599,0.2061226329613939,0.5567108304067095,-0.01447914820164442,-0.006516313645988703,0.01502204686403275,0.002355858683586121,0.009551942348480225,0.009645342826843262,XArbitraryZVertical,0.2708770116623563,0.1054165625475998,0.05109579901391822,0.9554592205558671,0.1737610995769501,-0.5283965468406677,-0.8310259580612183,0,0,0,-1,-1,3230.927795875,unknown,2,2026-04-24T18:20:16.323+02:00,null,0,0,0,0,0,0,0,null,798740460.2590986,0,0.75,101.556,1,0.85
2026-04-24T18:21:01.842+02:00,1777047653.571205,53.56895416345577,9.882977505173033,38.55946,-1,-1,-1,-1,9.056828472500998,2.789105338997707,-9999,3276.42638625,0.1718597412109375,-0.5244598388671875,-0.82421875,3276.41757525,0.04793105203399265,0.2059886119817963,0.5566079383575677,-0.01303198654204607,-0.008254025131464005,0.0137700280174613,0.0001672953367233276,0.007160484790802002,0.007890820503234863,XArbitraryZVertical,0.2708220242077578,0.1053763976645759,0.0511561111993151,0.9554760437526747,0.1736608445644379,-0.5283092260360718,-0.8311024904251099,0,0,0,-1,-1,3230.927795875,unknown,2,2026-04-24T18:20:16.323+02:00,null,0,0,0,0,0,0,0,null,798740460.2590986,0,0.75,101.556,1,0.85
2026-04-24T18:21:01.852+02:00,1777047653.571205,53.56895416345577,9.882977505173033,38.55946,-1,-1,-1,-1,9.056828472500998,2.789105338997707,-9999,3276.43646125,0.1736297607421875,-0.5259857177734375,-0.8245086669921875,3276.42765025,0.04811980279912518,0.205807616666768,0.5565001803602045,-0.01885631866753101,-0.01401098072528839,0.01691335812211037,-0.001662284135818481,0.003757834434509277,0.006970882415771484,XArbitraryZVertical,0.2707651642337429,0.1053157695263156,0.05121681180159272,0.9554955791473111,0.1735220402479172,-0.5282177329063416,-0.8311896324157715,0,0,0,-1,-1,3230.927795875,unknown,2,2026-04-24T18:20:16.323+02:00,null,0,0,0,0,0,0,0,null,798740460.2590986,0,0.75,101.556,1,0.85
2026-04-24T18:21:01.862+02:00,1777047653.571205,53.56895416345577,9.882977505173033,38.55946,-1,-1,-1,-1,9.056828472500998,2.789105338997707,-9999,3276.44653625,0.1739654541015625,-0.527587890625,-0.8227386474609375,3276.43772525,0.04829883449635722,0.2056249472028514,0.5564046005500716,-0.0229412354528904,-0.01710530743002892,0.01580874435603619,0.0002492517232894897,0.002150833606719971,0.006762027740478516,XArbitraryZVertical,0.2707146979051436,0.1052529826882949,0.05127321705283205,0.9555137504215525,0.1733805239200592,-0.5281365513801575,-0.831270694732666,0,0,0,-1,-1,3230.927795875,unknown,2,2026-04-24T18:20:16.323+02:00,null,0,0,0,0,0,0,0,null,798740460.2590986,0,0.75,101.556,1,0.85
2026-04-24T18:21:01.872+02:00,1777047653.571205,53.56895416345577,9.882977505173033,38.55946,-1,-1,-1,-1,9.056828472500998,2.789105338997707,-9999,3276.45661125,0.1722869873046875,-0.5286407470703125,-0.8227691650390625,3276.44780025,0.04852055937895001,0.2053770299609861,0.5563046406553698,-0.02789152041077614,-0.01944036781787872,0.01880746334791183,0.0007802844047546387,0.0004637837409973145,0.008626699447631836,XArbitraryZVertical,0.2706615755009187,0.1051647996136122,0.05134099985827793,0.9555348468342192,0.1731851845979691,-0.5280516743659973,-0.8313653469085693,0,0,0,-1,-1,3230.927795875,unknown,2,2026-04-24T18:20:16.323+02:00,null,0,0,0,0,0,0,0,null,798740460.2590986,0,0.75,101.556,1,0.85
2026-04-24T18:21:01.882+02:00,1777047653.571205,53.56895416345577,9.882977505173033,38.55946,-1,-1,-1,-1,9.056828472500998,2.789105338997707,-9999,3276.46668625,0.1707916259765625,-0.525543212890625,-0.8227081298828125,3276.45787525,0.04876172469624989,0.2051171127478537,0.5561281993428344,-0.03214282914996147,-0.01963877305388451,0.01788654178380966,-0.0007010847330093384,-0.0007389187812805176,0.008732438087463379,XArbitraryZVertical,0.2705711517513419,0.105073675296994,0.05141294976625798,0.9555666286591422,0.1729880720376968,-0.527901828289032,-0.8315015435218811,0,0,0,-1,-1,3230.927795875,unknown,2,2026-04-24T18:20:16.323+02:00,null,0,0,0,0,0,0,0,null,798740460.2590986,0,0.75,101.556,1,0.85
2026-04-24T18:21:01.893+02:00,1777047653.571205,53.56895416345577,9.882977505173033,38.55946,-1,-1,-1,-1,9.056828472500998,2.789105338997707,-9999,3276.47676125,0.168670654296875,-0.5239410400390625,-0.82470703125,3276.46795025,0.04900117085568299,0.2048598371572775,0.5558992575958102,-0.02851240895688534,-0.01424480602145195,0.01457623392343521,-0.002007082104682922,0.002164125442504883,0.008956193923950195,XArbitraryZVertical,0.2704556544896839,0.1049836761515081,0.05148206308189599,0.9556054854274076,0.1727987229824066,-0.5277073383331299,-0.8316643238067627,0,0,0,-1,-1,3230.927795875,unknown,2,2026-04-24T18:20:16.323+02:00,null,0,0,0,0,0,0,0,null,798740460.2590986,0,0.75,101.556,1,0.85
2026-04-24T18:21:01.903+02:00,1777047653.571205,53.56895416345577,9.882977505173033,38.55946,-1,-1,-1,-1,9.056828472500998,2.789105338997707,-9999,3276.48683625,0.1671905517578125,-0.5233612060546875,-0.8299713134765625,3276.47802525,0.04918625254380631,0.2046866571150571,0.5556695209703513,-0.02172225341200829,-0.008613286539912224,0.00854870118200779,-0.004008665680885315,0.003571152687072754,0.007105886936187744,XArbitraryZVertical,0.2703404775818324,0.1049264763337798,0.05153656809892866,0.9556414042410385,0.1726793348789215,-0.5275121927261353,-0.8318129181861877,0,0,0,-1,-1,3230.927795875,unknown,2,2026-04-24T18:20:16.323+02:00,null,0,0,0,0,0,0,0,null,798740460.2590986,0,0.75,101.556,1,0.85
2026-04-24T18:21:01.913+02:00,1777047653.571205,53.56895416345577,9.882977505173033,38.55946,-1,-1,-1,-1,9.056828472500998,2.789105338997707,-9999,3276.49691125,0.165863037109375,-0.5225982666015625,-0.8300323486328125,3276.48810025,0.04928665116106865,0.2045938455550983,0.555499042618354,-0.01300625968724489,-0.003172182478010654,0.00361120025627315,-0.005429819226264954,0.004006147384643555,0.001945674419403076,XArbitraryZVertical,0.2702560220097141,0.1048960748236702,0.05156419822433849,0.9556671545730571,0.1726204007863998,-0.5273673534393311,-0.8319169878959656,0,0,0,-1,-1,3230.927795875,unknown,2,2026-04-24T18:20:16.323+02:00,null,0,0,0,0,0,0,0,null,798740460.2590986,0,0.75,101.556,1,0.85
2026-04-24T18:21:01.923+02:00,1777047653.571205,53.56895416345577,9.882977505173033,38.55946,-1,-1,-1,-1,9.056828472500998,2.789105338997707,-9999,3276.50698625,0.1680145263671875,-0.525390625,-0.83343505859375,3276.49817525,0.0493253968393313,0.2045456575655193,0.5553794182538759,-0.01203202176839113,-0.002878168597817421,0.001248177140951157,-0.006730064749717712,0.004667460918426514,0.001954734325408936,XArbitraryZVertical,0.2701979980442018,0.104878551297977,0.05157073597861646,0.9556851005342597,0.1725931167602539,-0.527265727519989,-0.8319870829582214,0,0,0,-1,-1,3230.927795875,unknown,2,2026-04-24T18:20:16.323+02:00,null,0,0,0,0,0,0,0,null,798740460.2590986,0,0.75,101.556,1,0.85
2026-04-24T18:21:01.933+02:00,1777047653.571205,53.56895416345577,9.882977505173033,38.55946,-1,-1,-1,-1,9.056828472500998,2.789105338997707,-9999,3276.51706125,0.1698760986328125,-0.5256195068359375,-0.833038330078125,3276.50825025,0.04937271245345771,0.2044915960541317,0.5552797379922292,-0.01126476563513279,-0.002183083910495043,0.002475894521921873,-0.004544273018836975,0.001790404319763184,-0.001387238502502441,XArbitraryZVertical,0.2701492091328856,0.1048593270799324,0.05158148591617848,0.9557004273248011,0.1725588142871857,-0.5271810293197632,-0.8320478796958923,0,0,0,-1,-1,3230.927795875,unknown,2,2026-04-24T18:20:16.323+02:00,null,0,0,0,0,0,0,0,null,798740460.2590986,0,0.75,101.556,1,0.85
2026-04-24T18:21:01.943+02:00,1777047653.571205,53.56895416345577,9.882977505173033,38.55946,-1,-1,-1,-1,9.056828472500998,2.789105338997707,-9999,3276.52713625,0.1710662841796875,-0.5270538330078125,-0.8335723876953125,3276.51832525,0.04941176065759532,0.2044456790013741,0.555176249435729,-0.01631603576242924,-0.003952221479266882,0.0003351122722961009,-0.002655565738677979,0.001473546028137207,-0.0009291172027587891,XArbitraryZVertical,0.2700988227290831,0.1048428839110622,0.05158921500151901,0.9557160544346519,0.1725316792726517,-0.5270931124687195,-0.8321092128753662,0,0,0,-1,-1,3230.927795875,unknown,2,2026-04-24T18:20:16.323+02:00,null,0,0,0,0,0,0,0,null,798740460.2590986,0,0.75,101.556,1,0.85
2026-04-24T18:21:01.953+02:00,1777047653.571205,53.56895416345577,9.882977505173033,38.55946,-1,-1,-1,-1,9.056828472500998,2.789105338997707,-9999,3276.53721025,0.1706390380859375,-0.52716064453125,-0.8336181640625,3276.52840025,0.04944932343532354,0.2044025027581,0.5550569866848232,-0.01300732512027025,0.0008630396332591772,0.0005207345820963383,-0.001442223787307739,-6.204843521118164e-05,-0.001394152641296387,XArbitraryZVertical,0.2700408977501353,0.1048275824015049,0.05159588799377254,0.9557337282171471,0.1725085079669952,-0.5269917249679565,-0.8321781754493713,0,0,0,-1,-1,3230.927795875,unknown,2,2026-04-24T18:20:16.323+02:00,null,0,0,0,0,0,0,0,null,798740460.2590986,0,0.75,101.556,1,0.85
2026-04-24T18:21:01.963+02:00,1777047653.571205,53.56895416345577,9.882977505173033,38.55946,-1,-1,-1,-1,9.056828472500998,2.789105338997707,-9999,3276.54728525,0.1715087890625,-0.5257110595703125,-0.8357086181640625,3276.53847425,0.04944418212556898,0.2044188176636227,0.5549802336543689,-0.006536003202199936,0.001529895002022386,-0.003774211741983891,-0.001891270279884338,-0.0002341270446777344,-0.001403152942657471,XArbitraryZVertical,0.2700040151820999,0.1048348492729055,0.05159212776794714,0.9557435552393234,0.1725302934646606,-0.5269265174865723,-0.8322149515151978,0,0,0,-1,-1,3230.927795875,unknown,2,2026-04-24T18:20:16.323+02:00,null,0,0,0,0,0,0,0,null,798740460.2590986,0,0.75,101.556,1,0.85
2026-04-24T18:21:01.973+02:00,1777047653.571205,53.56895416345577,9.882977505173033,38.55946,-1,-1,-1,-1,9.056828472500998,2.789105338997707,-9999,3276.55736025,0.17071533203125,-0.5220947265625,-0.838470458984375,3276.54854925,0.04938439114940569,0.2044613258236835,0.5549589077447753,0.002213546074926853,0.00399997690692544,-0.008451521396636963,-0.001059159636497498,0.001197338104248047,-0.003489911556243896,XArbitraryZVertical,0.2699958514127035,0.1048471387208611,0.05156832122633297,0.9557457843774328,0.1725679486989975,-0.5269083976745605,-0.8322186470031738,0,0,0,-1,-1,3230.927795875,unknown,2,2026-04-24T18:20:16.323+02:00,null,0,0,0,0,0,0,0,null,798740460.2590986,0,0.75,101.556,1,0.85
2026-04-24T18:21:01.996+02:00,1777047653.571205,53.56895416345577,9.882977505173033,38.55946,-1,-1,-1,-1,9.056828472500998,2.789105338997707,-9999,3276.56743525,0.170745849609375,-0.5209503173828125,-0.8393402099609375,3276.55862425,0.04926184867637497,0.2045898808665221,0.5550310091495847,0.01469349209219217,0.008577152155339718,-0.01104990020394325,-0.001951873302459717,0.004874944686889648,-0.006311178207397461,XArbitraryZVertical,0.2700334532170233,0.1048918630253313,0.05153040772688641,0.9557323501083909,0.1726672202348709,-0.5269696712493896,-0.8321592807769775,0,0,0,-1,-1,3230.927795875,unknown,2,2026-04-24T18:20:16.323+02:00,null,0,0,0,0,0,0,0,null,798740460.2590986,0,0.75,101.556,1,0.85
2026-04-24T18:21:01.997+02:00,1777047653.571205,53.56895416345577,9.882977505173033,38.55946,-1,-1,-1,-1,9.056828472500998,2.789105338997707,-9999,3276.57751025,0.1697845458984375,-0.5215606689453125,-0.833709716796875,3276.56869925,0.04910284862639593,0.2047767778773964,0.5551859373249102,0.02005629800260067,0.01223180815577507,-0.01243021711707115,-0.002060294151306152,0.006151020526885986,-0.007293164730072021,XArbitraryZVertical,0.2701111374628684,0.1049593641667812,0.05148676189582416,0.9557052859317225,0.1728061437606812,-0.5271013379096985,-0.8320469856262207,0,0,0,-1,-1,3230.927795875,unknown,2,2026-04-24T18:20:16.323+02:00,null,0,0,0,0,0,0,0,null,798740460.2590986,0,0.75,101.556,1,0.85
2026-04-24T18:21:02.003+02:00,1777047653.571205,53.56895416345577,9.882977505173033,38.55946,-1,-1,-1,-1,9.056828472500998,2.789105338997707,-9999,3276.58758525,0.1715545654296875,-0.5236663818359375,-0.8291473388671875,3276.57877425,0.04892928202547246,0.2049443157992483,0.5553633810621135,0.02342253364622593,0.007830668240785599,-0.01285545714199543,-0.003141939640045166,0.005691409111022949,-0.001783251762390137,XArbitraryZVertical,0.2702008423365994,0.1050155670220894,0.05143458038985127,0.9556765911912474,0.1729265004396439,-0.5272520780563354,-0.8319264650344849,0,0,0,-1,-1,3230.927795875,unknown,2,2026-04-24T18:20:16.323+02:00,null,0,0,0,0,0,0,0,null,798740460.2590986,0,0.75,101.556,1,0.85
2026-04-24T18:21:02.014+02:00,1777047653.571205,53.56895416345577,9.882977505173033,38.55946,-1,-1,-1,-1,9.056828472500998,2.789105338997707,-9999,3276.59766025,0.17205810546875,-0.5247039794921875,-0.8311309814453125,3276.58884925,0.04872971003058231,0.2051200126198469,0.5555779586114632,0.02926950342953205,0.0111958384513855,-0.01574418880045414,-0.001495033502578735,0.003768026828765869,0.002637982368469238,XArbitraryZVertical,0.2703094929597039,0.1050720512847518,0.05137280415890429,0.9556429594128342,0.1730496138334274,-0.5274344086647034,-0.831785261631012,0,0,0,-1,-1,3230.927795875,unknown,2,2026-04-24T18:20:16.323+02:00,null,0,0,0,0,0,0,0,null,798740460.2590986,0,0.75,101.556,1,0.85
2026-04-24T18:21:02.024+02:00,1777047653.571205,53.56895416345577,9.882977505173033,38.55946,-1,-1,-1,-1,9.056828472500998,2.789105338997707,-9999,3276.60773525,0.1732635498046875,-0.524993896484375,-0.83062744140625,3276.59892425,0.04844373392127586,0.2053648662267616,0.555845463208237,0.03414266183972359,0.008356375619769096,-0.02083795145153999,-0.001166388392448425,0.002957701683044434,0.0004737377166748047,XArbitraryZVertical,0.2704462232965924,0.1051497283807913,0.05128154300630646,0.9556006817222162,0.1732245087623596,-0.5276616811752319,-0.8316047787666321,0,0,0,-1,-1,3230.927795875,unknown,2,2026-04-24T18:20:16.323+02:00,null,0,0,0,0,0,0,0,null,798740460.2590986,0,0.75,101.556,1,0.85
2026-04-24T18:21:02.034+02:00,1777047653.571205,53.56895416345577,9.882977505173033,38.55946,-1,-1,-1,-1,9.056828472500998,2.789105338997707,-9999,3276.61781025,0.17498779296875,-0.526611328125,-0.826904296875,3276.60899925,0.04815289549243468,0.2055860624080332,0.5561074712783497,0.0266469307243824,0.006661274004727602,-0.01539578102529049,-0.0001166611909866333,0.002890288829803467,0.0008035898208618164,XArbitraryZVertical,0.2705812114910767,0.1052154140193777,0.05118455220924542,0.955560451958464,0.1733802258968353,-0.5278842449188232,-0.8314310312271118,0,0,0,-1,-1,3230.927795875,unknown,2,2026-04-24T18:20:16.323+02:00,null,0,0,0,0,0,0,0,null,798740460.2590986,0,0.75,101.556,1,0.85
2026-04-24T18:21:02.044+02:00,1777047653.571205,53.56895416345577,9.882977505173033,38.55946,-1,-1,-1,-1,9.056828472500998,2.789105338997707,-9999,3276.62788525,0.1764984130859375,-0.5343475341796875,-0.8224945068359375,3276.61907425,0.04796680530539224,0.2057132560032453,0.5562486470576229,0.007171499542891979,0.004070817492902279,-0.01028437539935112,0.001517057418823242,0.001392781734466553,0.004431724548339844,XArbitraryZVertical,0.2706553106723784,0.1052506447982389,0.05111936150988568,0.9555390249348507,0.173470750451088,-0.5280041098594666,-0.8313360214233398,0,0,0,-1,-1,3230.927795875,unknown,2,2026-04-24T18:20:16.323+02:00,null,0,0,0,0,0,0,0,null,798740460.2590986,0,0.75,101.556,1,0.85
2026-04-24T18:21:02.054+02:00,1777047653.571205,53.56895416345577,9.882977505173033,38.55946,-1,-1,-1,-1,9.056828472500998,2.789105338997707,-9999,3276.63796025,0.17279052734375,-0.5390625,-0.817108154296875,3276.62914925,0.04792098955171037,0.2057350492673373,0.5561696436749554,-0.01962176337838173,0.0008198968134820461,-0.004494929686188698,0.003001034259796143,-0.006410479545593262,0.008878588676452637,XArbitraryZVertical,0.2706193749041008,0.105255068871574,0.05109678420785386,0.955549892364022,0.1734973788261414,-0.5279369950294495,-0.8313730359077454,0,0,0,-1,-1,3230.927795875,unknown,2,2026-04-24T18:20:16.323+02:00,null,0,0,0,0,0,0,0,null,798740460.2590986,0,0.75,101.556,1,0.85
2026-04-24T18:21:02.064+02:00,1777047653.571205,53.56895416345577,9.882977505173033,38.55946,-1,-1,-1,-1,9.056828472500998,2.789105338997707,-9999,3276.64803525,0.1713409423828125,-0.5326385498046875,-0.8160247802734375,3276.63922425,0.04797731074047058,0.2057286339329285,0.5558457407765766,-0.0371500551700592,0.006343558896332979,-0.000549656106159091,-0.0007364153861999512,-0.01140058040618896,0.01443338394165039,XArbitraryZVertical,0.270461596231164,0.1052604697603642,0.05110789746540487,0.9555933850355465,0.1735269725322723,-0.527661919593811,-0.8315415382385254,0,0,0,-1,-1,3230.927795875,unknown,2,2026-04-24T18:20:16.323+02:00,null,0,0,0,0,0,0,0,null,798740460.2590986,0,0.75,101.556,1,0.85
2026-04-24T18:21:02.074+02:00,1777047653.571205,53.56895416345577,9.882977505173033,38.55946,-1,-1,-1,-1,9.056828472500998,2.789105338997707,-9999,3276.65811025,0.170318603515625,-0.5220489501953125,-0.8164215087890625,3276.64929925,0.04808136338547701,0.2057559993357793,0.5554307404039688,-0.03678812831640244,0.01493145432323217,0.0004916399484500289,-0.002253502607345581,-0.0053291916847229,0.01572626829147339,XArbitraryZVertical,0.2702568471051127,0.1052886868402544,0.05114218794501968,0.9556463706255349,0.1735944449901581,-0.5273093581199646,-0.8317510485649109,0,0,0,-1,-1,3230.927795875,unknown,2,2026-04-24T18:20:16.323+02:00,null,0,0,0,0,0,0,0,null,798740460.2590986,0,0.75,101.556,1,0.85
2026-04-24T18:21:02.084+02:00,1777047653.571205,53.56895416345577,9.882977505173033,38.55946,-1,-1,-1,-1,9.056828472500998,2.789105338997707,-9999,3276.66818525,0.17205810546875,-0.5142364501953125,-0.8189697265625,3276.65937425,0.04814555938622578,0.2058497926393348,0.5551404464096279,-0.01853578165173531,0.01380680128931999,-0.002864409470930696,-0.00338512659072876,0.005013704299926758,0.01546311378479004,XArbitraryZVertical,0.2701121512319635,0.1053429183775215,0.05117214776475161,0.9556797266360697,0.173703745007515,-0.5270626544952393,-0.8318845629692078,0,0,0,-1,-1,3230.927795875,unknown,2,2026-04-24T18:20:16.323+02:00,null,0,0,0,0,0,0,0,null,798740460.2590986,0,0.75,101.556,1,0.85
2026-04-24T18:21:02.094+02:00,1777047653.571205,53.56895416345577,9.882977505173033,38.55946,-1,-1,-1,-1,9.056828472500998,2.789105338997707,-9999,3276.67826025,0.1761474609375,-0.5113525390625,-0.8206329345703125,3276.66944925,0.04811735464416396,0.2060162675039862,0.555047259554812,0.001960173016414046,0.01548166386783123,-0.003155493177473545,-0.001794159412384033,0.01274698972702026,0.01293402910232544,XArbitraryZVertical,0.2700647640030335,0.1054188873662797,0.05117684389967931,0.9556845661654533,0.1738522797822952,-0.5269834399223328,-0.8319037556648254,0,0,0,-1,-1,3230.927795875,unknown,2,2026-04-24T18:20:16.323+02:00,null,0,0,0,0,0,0,0,null,798740460.2590986,0,0.75,101.556,1,0.85
2026-04-24T18:21:02.105+02:00,1777047653.571205,53.56895416345577,9.882977505173033,38.55946,-1,-1,-1,-1,9.056828472500998,2.789105338997707,-9999,3276.68833525,0.1747283935546875,-0.513671875,-0.825653076171875,3276.67952425,0.04806734617858888,0.2061764959079836,0.5550989967878919,0.008441507816314697,0.01246723160147667,-0.004122286569327116,0.002167493104934692,0.015674889087677,0.01121628284454346,XArbitraryZVertical,0.270088061752298,0.1054885654961367,0.05117697537466646,0.9556702733323583,0.1739799976348877,-0.527027428150177,-0.831849217414856,0,0,0,-1,-1,3230.927795875,unknown,2,2026-04-24T18:20:16.323+02:00,null,0,0,0,0,0,0,0,null,798740460.2590986,0,0.75,101.556,1,0.85
2026-04-24T18:21:02.116+02:00,1777047653.571205,53.56895416345577,9.882977505173033,38.55946,-1,-1,-1,-1,9.056828472500998,2.789105338997707,-9999,3276.69841025,0.1750640869140625,-0.521575927734375,-0.8277587890625,3276.68959925,0.04801240514946712,0.2063269491550514,0.5551588176239342,0.003333298722282052,0.01016306504607201,-0.001270840177312493,0.0006297379732131958,0.01340639591217041,0.006139039993286133,XArbitraryZVertical,0.2701157498054822,0.1055528870954081,0.05117381211605646,0.9556554659852513,0.1740986853837967,-0.5270782709121704,-0.8317921161651611,0,0,0,-1,-1,3230.927795875,unknown,2,2026-04-24T18:20:16.323+02:00,null,0,0,0,0,0,0,0,null,798740460.2590986,0,0.75,101.556,1,0.85
2026-04-24T18:21:02.125+02:00,1777047653.571205,53.56895416345577,9.882977505173033,38.55946,-1,-1,-1,-1,9.056828472500998,2.789105338997707,-9999,3276.70848525,0.1759185791015625,-0.5303955078125,-0.829681396484375,3276.69967425,0.04802878140995154,0.2063861718137057,0.5551054219165956,-0.01598617620766163,0.0007282835431396961,0.002850468037649989,0.0009103864431381226,0.005456984043121338,0.004050612449645996,XArbitraryZVertical,0.2700878237976688,0.1055835389527687,0.05118716787226779,0.9556592435080865,0.1741537153720856,-0.5270329117774963,-0.8318093419075012,0,0,0,-1,-1,3230.927795875,unknown,2,2026-04-24T18:20:16.323+02:00,null,0,0,0,0,0,0,0,null,798740460.2590986,0,0.75,101.556,1,0.85
2026-04-24T18:21:02.135+02:00,1777047653.571205,53.56895416345577,9.882977505173033,38.55946,-1,-1,-1,-1,9.056828472500998,2.789105338997707,-9999,3276.71856025,0.1746826171875,-0.5325469970703125,-0.8282318115234375,3276.70974925,0.04810146975679447,0.2063316592813245,0.5549053309183255,-0.03340112045407295,-0.007646026089787483,0.00335274008102715,0.001788631081581116,-0.003532707691192627,0.002240657806396484,XArbitraryZVertical,0.2699896400955298,0.1055678294488575,0.05120529047293269,0.9556877360595887,0.1741299629211426,-0.5268628597259521,-0.8319220542907715,0,0,0,-1,-1,3230.927795875,unknown,2,2026-04-24T18:20:16.323+02:00,null,0,0,0,0,0,0,0,null,798740460.2590986,0,0.75,101.556,1,0.85
2026-04-24T18:21:02.145+02:00,1777047653.571205,53.56895416345577,9.882977505173033,38.55946,-1,-1,-1,-1,9.056828472500998,2.789105338997707,-9999,3276.72863525,0.1751861572265625,-0.529388427734375,-0.8292694091796875,3276.71982425,0.04827531728449588,0.2061368905525749,0.5546159002412078,-0.04094313830137253,-0.01275982800871134,0.008549566380679607,0.0006835013628005981,-0.005930185317993164,0.003873348236083984,XArbitraryZVertical,0.2698469529485938,0.1054989630749159,0.05124870561776936,0.9557333120630204,0.1739991307258606,-0.5266168117523193,-0.8321051597595215,0,0,0,-1,-1,3230.927795875,unknown,2,2026-04-24T18:20:16.323+02:00,null,0,0,0,0,0,0,0,null,798740460.2590986,0,0.75,101.556,1,0.85
2026-04-24T18:21:02.155+02:00,1777047653.571205,53.56895416345577,9.882977505173033,38.55946,-1,-1,-1,-1,9.056828472500998,2.789105338997707,-9999,3276.73871025,0.1729583740234375,-0.5229034423828125,-0.8325347900390625,3276.72989925,0.048476128275606,0.2059233011967917,0.554292088570428,-0.03763522580265999,-0.0091602997854352,0.009538132697343826,0.001329913735389709,-0.003046929836273193,0.003039836883544922,XArbitraryZVertical,0.2696868748177217,0.105424787537714,0.05130091580018445,0.9557838846126084,0.173856258392334,-0.5263414978981018,-0.8323091864585876,0,0,0,-1,-1,3230.927795875,unknown,2,2026-04-24T18:20:16.323+02:00,null,0,0,0,0,0,0,0,null,798740460.2590986,0,0.75,101.556,1,0.85
2026-04-24T18:21:02.166+02:00,1777047653.571205,53.56895416345577,9.882977505173033,38.55946,-1,-1,-1,-1,9.056828472500998,2.789105338997707,-9999,3276.74878525,0.1706390380859375,-0.517364501953125,-0.83563232421875,3276.73997425,0.04864448963840488,0.2057820320748168,0.554050671151699,-0.01680493913590908,-0.001544191502034664,0.007737368810921907,-0.0008062422275543213,0.003232777118682861,-7.665157318115234e-05,XArbitraryZVertical,0.269566101824639,0.1053805658148861,0.05135120800676871,0.9558200858211674,0.173764631152153,-0.5261362195014954,-0.8324580788612366,0,0,0,-1,-1,3230.927795875,unknown,2,2026-04-24T18:20:16.323+02:00,null,0,0,0,0,0,0,0,null,798740460.2590986,0,0.75,101.556,1,0.85
2026-04-24T18:21:02.175+02:00,1777047653.571205,53.56895416345577,9.882977505173033,38.55946,-1,-1,-1,-1,9.056828472500998,2.789105338997707,-9999,3276.75886025,0.1699371337890625,-0.51470947265625,-0.8340606689453125,3276.75004925,0.04873138358276916,0.2057383458259515,0.5539887897580962,0.002708840882405639,0.001812989357858896,0.005472616292536259,-0.003095865249633789,0.008719086647033691,-0.003134727478027344,XArbitraryZVertical,0.2695330279196151,0.1053715462133637,0.05138399662412981,0.9558286502682795,0.1737349182367325,-0.5260835886001587,-0.8324975967407227,0,0,0,-1,-1,3230.927795875,unknown,2,2026-04-24T18:20:16.323+02:00,null,0,0,0,0,0,0,0,null,798740460.2590986,0,0.75,101.556,1,0.85
2026-04-24T18:21:02.186+02:00,1777047653.571205,53.56895416345577,9.882977505173033,38.55946,-1,-1,-1,-1,9.056828472500998,2.789105338997707,-9999,3276.76893525,0.16925048828125,-0.518585205078125,-0.8311920166015625,3276.76012425,0.04871965258460306,0.205746426347149,0.554101901049851,0.0209516528993845,-0.002666447777301073,0.0008368520648218691,-0.003792345523834229,0.01147031784057617,-0.00162273645401001,XArbitraryZVertical,0.2695875607677866,0.1053735517437256,0.05138468419745895,0.9558130543475697,0.1737294942140579,-0.5261797904968262,-0.8324379324913025,0,0,0,-1,-1,3230.927795875,unknown,2,2026-04-24T18:20:16.323+02:00,null,0,0,0,0,0,0,0,null,798740460.2590986,0,0.75,101.556,1,0.85
2026-04-24T18:21:02.200+02:00,1777047653.571205,53.56895416345577,9.882977505173033,38.55946,-1,-1,-1,-1,9.056828472500998,2.789105338997707,-9999,3276.77901025,0.170318603515625,-0.5255889892578125,-0.832427978515625,3276.77019925,0.04864701822656567,0.2057739498090326,0.5543082206714446,0.02568675391376019,-0.001685605384409428,-0.002128577791154385,-0.004479706287384033,0.007770001888275146,0.001134812831878662,XArbitraryZVertical,0.2696894321001738,0.1053764221325413,0.05136319113345484,0.9557851191482014,0.1737302094697952,-0.5263552069664001,-0.8323268294334412,0,0,0,-1,-1,3230.927795875,unknown,2,2026-04-24T18:20:16.323+02:00,null,0,0,0,0,0,0,0,null,798740460.2590986,0,0.75,101.556,1,0.85
2026-04-24T18:21:02.205+02:00,1777047653.571205,53.56895416345577,9.882977505173033,38.55946,-1,-1,-1,-1,9.056828472500998,2.789105338997707,-9999,3276.78908525,0.16943359375,-0.531585693359375,-0.82879638671875,3276.78027425,0.04853328212213378,0.2058009543419429,0.55452667403328,0.01944979093968868,-0.004168737214058638,-0.006374788470566273,-0.003410577774047852,0.0009520053863525391,-0.0002183318138122559,XArbitraryZVertical,0.2697992811271626,0.1053734588036711,0.05132254760363464,0.9557566098350717,0.1737291812896729,-0.5265409350395203,-0.832209587097168,0,0,0,-1,-1,3230.927795875,unknown,2,2026-04-24T18:20:16.323+02:00,null,0,0,0,0,0,0,0,null,798740460.2590986,0,0.75,101.556,1,0.85
2026-04-24T18:21:02.215+02:00,1777047653.571205,53.56895416345577,9.882977505173033,38.55946,-1,-1,-1,-1,9.056828472500998,2.789105338997707,-9999,3276.79916025,0.1685791015625,-0.535369873046875,-0.8266448974609375,3276.79034925,0.04841823357891002,0.205841450962232,0.5546384992081502,0.005467129871249199,-0.003277643118053675,-0.01069550029933453,-0.004317238926887512,-0.004949688911437988,0.00334852933883667,XArbitraryZVertical,0.2698577923149986,0.1053770020936986,0.05127817539409645,0.9557421723490186,0.1737508624792099,-0.526636004447937,-0.8321449160575867,0,0,0,-1,-1,3230.927795875,unknown,2,2026-04-24T18:20:16.323+02:00,null,0,0,0,0,0,0,0,null,798740460.2590986,0,0.75,101.556,1,0.85
2026-04-24T18:21:02.225+02:00,1777047653.571205,53.56895416345577,9.882977505173033,38.55946,-1,-1,-1,-1,9.056828472500998,2.789105338997707,-9999,3276.80923525,0.16943359375,-0.53741455078125,-0.8268890380859375,3276.80042425,0.04831977920656837,0.2058598075398862,0.5546374776602149,-0.006734834983944893,-0.0056878044269979,-0.009413056075572968,-0.005187138915061951,-0.008734703063964844,0.005497395992279053,XArbitraryZVertical,0.2698620314956204,0.1053724972975992,0.05123356120640224,0.9557438262977835,0.173766240477562,-0.5266351699829102,-0.8321422338485718,0,0,0,-1,-1,3230.927795875,unknown,2,2026-04-24T18:20:16.323+02:00,null,0,0,0,0,0,0,0,null,798740460.2590986,0,0.75,101.556,1,0.85
2026-04-24T18:21:02.235+02:00,1777047653.571205,53.56895416345577,9.882977505173033,38.55946,-1,-1,-1,-1,9.056828472500998,2.789105338997707,-9999,3276.81931025,0.1684112548828125,-0.535003662109375,-0.830291748046875,3276.81049925,0.04821921123514029,0.205867098911534,0.5545183409167846,-0.01524523179978132,-0.005730680655688047,-0.0112940464168787,-0.004351526498794556,-0.01088064908981323,0.005313336849212646,XArbitraryZVertical,0.2698101267572826,0.1053627117077363,0.05118099100983341,0.9557623856175825,0.1737851351499557,-0.5265339016914368,-0.8322023749351501,0,0,0,-1,-1,3230.927795875,unknown,2,2026-04-24T18:20:16.323+02:00,null,0,0,0,0,0,0,0,null,798740460.2590986,0,0.75,101.556,1,0.85
2026-04-24T18:21:02.246+02:00,1777047653.571205,53.56895416345577,9.882977505173033,38.55946,-1,-1,-1,-1,9.056828472500998,2.789105338997707,-9999,3276.82938525,0.1707305908203125,-0.52947998046875,-0.8318023681640625,3276.82057425,0.04813958030562994,0.2059294780652774,0.554328568317027,-0.01362651027739048,0.006238097324967384,-0.009101798757910728,-0.005446210503578186,-0.008631110191345215,0.001997590065002441,XArbitraryZVertical,0.2697219127809838,0.1053822644248943,0.05114259821376625,0.9557871669603234,0.1738574802875519,-0.5263725519180298,-0.8322893381118774,0,0,0,-1,-1,3230.927795875,unknown,2,2026-04-24T18:20:16.323+02:00,null,0,0,0,0,0,0,0,null,798740460.2590986,0,0.75,101.556,1,0.85
2026-04-24T18:21:02.255+02:00,1777047653.571205,53.56895416345577,9.882977505173033,38.55946,-1,-1,-1,-1,9.056828472500998,2.789105338997707,-9999,3276.83946025,0.172576904296875,-0.523529052734375,-0.8307342529296875,3276.83064925,0.04804255899637189,0.2060151084850386,0.5541824690203175,-0.002529650228098035,0.002529645804315805,-0.0122107733041048,-0.003213852643966675,-0.003231704235076904,0.0005473494529724121,XArbitraryZVertical,0.2696549315687942,0.1054104842661366,0.05110104126236736,0.9558051288681866,0.1739444732666016,-0.5262482762336731,-0.8323497176170349,0,0,0,-1,-1,3230.927795875,unknown,2,2026-04-24T18:20:16.323+02:00,null,0,0,0,0,0,0,0,null,798740460.2590986,0,0.75,101.556,1,0.85
2026-04-24T18:21:02.266+02:00,1777047653.571205,53.56895416345577,9.882977505173033,38.55946,-1,-1,-1,-1,9.056828472500998,2.789105338997707,-9999,3276.84953525,0.1717071533203125,-0.5176239013671875,-0.8344879150390625,3276.84072425,0.04789180163773363,0.2061495581482589,0.5541609069625022,0.01418674550950527,0.01408377010375261,-0.009717721492052078,-0.001481771469116211,0.002700924873352051,0.001603186130523682,XArbitraryZVertical,0.2696491101352896,0.1054544606891035,0.05104611860809818,0.9558049109931042,0.1740587055683136,-0.5262299776077271,-0.8323374390602112,0,0,0,-1,-1,3230.927795875,unknown,2,2026-04-24T18:20:16.323+02:00,null,0,0,0,0,0,0,0,null,798740460.2590986,0,0.75,101.556,1,0.85
2026-04-24T18:21:02.276+02:00,1777047653.571205,53.56895416345577,9.882977505173033,38.55946,-1,-1,-1,-1,9.056828472500998,2.789105338997707,-9999,3276.85961025,0.1706695556640625,-0.515472412109375,-0.836456298828125,3276.85079925,0.04771907185617125,0.2064020579322958,0.5543704789724903,0.03605476021766663,0.01516448147594929,-0.01265225932002068,-0.002539083361625671,0.008784234523773193,-0.002302408218383789,XArbitraryZVertical,0.269752084353751,0.1055512858804723,0.05100731831199608,0.9557672015552495,0.1742462515830994,-0.5264081358909607,-0.8321855068206787,0,0,0,-1,-1,3230.927795875,unknown,2,2026-04-24T18:20:16.323+02:00,null,0,0,0,0,0,0,0,null,798740460.2590986,0,0.75,101.556,1,0.85
2026-04-24T18:21:02.286+02:00,1777047653.571205,53.56895416345577,9.882977505173033,38.55946,-1,-1,-1,-1,9.056828472500998,2.789105338997707,-9999,3276.86968525,0.1734619140625,-0.518035888671875,-0.831878662109375,3276.86087425,0.04744423723675866,0.2066826736483205,0.5547323161127902,0.04337046667933464,0.01384381949901581,-0.01830262131989002,-0.003771096467971802,0.01124334335327148,-0.004506230354309082,XArbitraryZVertical,0.2699325950474862,0.1056473146909195,0.05093060433817708,0.9557097271169845,0.1744406670331955,-0.5267157554626465,-0.8319500684738159,0,0,0,-1,-1,3230.927795875,unknown,2,2026-04-24T18:20:16.323+02:00,null,0,0,0,0,0,0,0,null,798740460.2590986,0,0.75,101.556,1,0.85
2026-04-24T18:21:02.296+02:00,1777047653.571205,53.56895416345577,9.882977505173033,38.55946,-1,-1,-1,-1,9.056828472500998,2.789105338997707,-9999,3276.87976025,0.1754913330078125,-0.5245513916015625,-0.8336944580078125,3276.87094925,0.04715732975896834,0.2069337481551539,0.5551344526033465,0.03732162714004517,0.01069489773362875,-0.01461920328438282,-0.001144096255302429,0.00902169942855835,-0.0001797080039978027,XArbitraryZVertical,0.2701337897983457,0.105727414277491,0.0508460656524195,0.9556485344854875,0.1746060103178024,-0.5270575881004333,-0.8316988945007324,0,0,0,-1,-1,3230.927795875,unknown,2,2026-04-24T18:20:16.323+02:00,null,0,0,0,0,0,0,0,null,798740460.2590986,0,0.75,101.556,1,0.85
2026-04-24T18:21:02.306+02:00,1777047653.571205,53.56895416345577,9.882977505173033,38.55946,-1,-1,-1,-1,9.056828472500998,2.789105338997707,-9999,3276.88983525,0.175018310546875,-0.531402587890625,-0.8332672119140625,3276.88102425,0.04690407353682549,0.2071241601853508,0.555488804452782,0.0287720263004303,0.006749690510332584,-0.01413523964583874,0.0007653981447219849,0.002807259559631348,-0.002211630344390869,XArbitraryZVertical,0.2703118882507482,0.1057831433187473,0.05076724737922129,0.9555962145939745,0.1747259646654129,-0.5273586511611938,-0.8314828276634216,0,0,0,-1,-1,3230.927795875,unknown,2,2026-04-24T18:20:16.323+02:00,null,0,0,0,0,0,0,0,null,798740460.2590986,0,0.75,101.556,1,0.85
2026-04-24T18:21:02.316+02:00,1777047653.571205,53.56895416345577,9.882977505173033,38.55946,-1,-1,-1,-1,9.056828472500998,2.789105338997707,-9999,3276.89991025,0.17401123046875,-0.5292510986328125,-0.830535888671875,3276.89109925,0.04668151560784846,0.207283257310089,0.5557456357374565,0.01922539249062538,0.001819646917283535,-0.01384362392127514,0.0001879483461380005,-0.003825724124908447,-0.001944780349731445,XArbitraryZVertical,0.2704425052499678,0.1058283019372846,0.05069436684863356,0.9555581357350404,0.174830362200737,-0.5275768637657166,-0.8313224315643311,0,0,0,-1,-1,3230.927795875,unknown,2,2026-04-24T18:20:16.323+02:00,null,0,0,0,0,0,0,0,null,798740460.2590986,0,0.75,101.556,1,0.85
2026-04-24T18:21:02.326+02:00,1777047653.571205,53.56895416345577,9.882977505173033,38.55946,-1,-1,-1,-1,9.056828472500998,2.789105338997707,-9999,3276.90998525,0.177093505859375,-0.527008056640625,-0.8289642333984375,3276.90117425,0.0465104494083144,0.2073642799852713,0.5559086244513027,0.01507363095879555,-4.136981442570686e-05,-0.009402336552739143,-0.0008687824010848999,-0.001535773277282715,0.0006882548332214355,XArbitraryZVertical,0.2705274814728596,0.105843378472322,0.05063118123822613,0.9555357731590718,0.1748800128698349,-0.5277153253555298,-0.8312241435050964,0,0,0,-1,-1,3230.927795875,unknown,2,2026-04-24T18:20:16.323+02:00,null,0,0,0,0,0,0,0,null,798740460.2590986,0,0.75,101.556,1,0.85
2026-04-24T18:21:02.336+02:00,1777047653.571205,53.56895416345577,9.882977505173033,38.55946,-1,-1,-1,-1,9.056828472500998,2.789105338997707,-9999,3276.92006025,0.1780853271484375,-0.527374267578125,-0.828826904296875,3276.91124925,0.0464041522097601,0.2074071143084587,0.5560412217372802,0.01502915658056736,-0.0009990422986447811,-0.005349271930754185,0.002192288637161255,0.0008199214935302734,0.002183973789215088,XArbitraryZVertical,0.2705954612002407,0.1058490535515565,0.05059236803513875,0.9555179498852034,0.1749012172222137,-0.5278279781341553,-0.8311481475830078,0,0,0,-1,-1,3230.927795875,unknown,2,2026-04-24T18:20:16.323+02:00,null,0,0,0,0,0,0,0,null,798740460.2590986,0,0.75,101.556,1,0.85
2026-04-24T18:21:02.346+02:00,1777047653.571205,53.56895416345577,9.882977505173033,38.55946,-1,-1,-1,-1,9.056828472500998,2.789105338997707,-9999,3276.93013525,0.1772918701171875,-0.5255126953125,-0.825714111328125,3276.92132425,0.04633512512664398,0.2074039136985471,0.5561513154450595,0.01323237456381321,-0.001404375769197941,-0.001913061598315835,0.003198757767677307,0.0005471706390380859,0.002264976501464844,XArbitraryZVertical,0.2706518607831923,0.1058378390107504,0.05056408448254832,0.9555047319624788,0.1748865842819214,-0.5279214382171631,-0.8310918211936951,0,0,0,-1,-1,3230.927795875,unknown,2,2026-04-24T18:20:16.323+02:00,null,0,0,0,0,0,0,0,null,798740460.2590986,0,0.75,101.556,1,0.85
2026-04-24T18:21:02.356+02:00,1777047653.571205,53.56895416345577,9.882977505173033,38.55946,-1,-1,-1,-1,9.056828472500998,2.789105338997707,-9999,3276.94021025,0.17449951171875,-0.520294189453125,-0.82476806640625,3276.93139925,0.04631446830969746,0.2073929108642664,0.556233858131294,0.01400895230472088,-0.001753516029566526,0.002481420524418354,0.002423420548439026,0.002478837966918945,0.005336999893188477,XArbitraryZVertical,0.2706927216234778,0.1058295287272976,0.05055657272750234,0.9554944731454394,0.1748684644699097,-0.5279915332794189,-0.8310511112213135,0,0,0,-1,-1,3230.927795875,unknown,2,2026-04-24T18:20:16.323+02:00,null,0,0,0,0,0,0,0,null,798740460.2590986,0,0.75,101.556,1,0.85
2026-04-24T18:21:02.366+02:00,1777047653.571205,53.56895416345577,9.882977505173033,38.55946,-1,-1,-1,-1,9.056828472500998,2.789105338997707,-9999,3276.95028525,0.174957275390625,-0.5177459716796875,-0.8195037841796875,3276.94147425,0.04630006920141232,0.2073477200917336,0.556349142821127,0.0201808288693428,-0.008017003536224365,-0.002402284415438771,-0.0003188550472259521,0.007795274257659912,0.006231367588043213,XArbitraryZVertical,0.2707497829210145,0.1058056308554836,0.0505489492155848,0.9554813393792289,0.1748183816671371,-0.5280894637107849,-0.8309994339942932,0,0,0,-1,-1,3230.927795875,unknown,2,2026-04-24T18:20:16.323+02:00,null,0,0,0,0,0,0,0,null,798740460.2590986,0,0.75,101.556,1,0.85
2026-04-24T18:21:02.376+02:00,1777047653.571205,53.56895416345577,9.882977505173033,38.55946,-1,-1,-1,-1,9.056828472500998,2.789105338997707,-9999,3276.96036025,0.178558349609375,-0.518218994140625,-0.8167572021484375,3276.95154925,0.04622354044332751,0.2073057887130351,0.5565038286994748,0.02081173099577427,-0.007465197239071131,-0.002928258618339896,0.0001905709505081177,0.0104748010635376,0.01142305135726929,XArbitraryZVertical,0.2708288938081493,0.1057747517580635,0.05051391729828889,0.9554641810035557,0.1747667193412781,-0.5282208323478699,-0.8309268355369568,0,0,0,-1,-1,3230.927795875,unknown,2,2026-04-24T18:20:16.323+02:00,null,0,0,0,0,0,0,0,null,798740460.2590986,0,0.75,101.556,1,0.85
2026-04-24T18:21:02.386+02:00,1777047653.571205,53.56895416345577,9.882977505173033,38.55946,-1,-1,-1,-1,9.056828472500998,2.789105338997707,-9999,3276.97043525,0.176513671875,-0.5234832763671875,-0.818145751953125,3276.96162425,0.04616374720384155,0.2072783058286476,0.5566493762566778,0.01484965905547142,-0.002183350268751383,-0.004028210416436195,0.003830313682556152,0.01012539863586426,0.01409918069839478,XArbitraryZVertical,0.2709023814993198,0.1057530658403699,0.05048841038136333,0.9554470824060884,0.17472805082798,-0.5283443927764893,-0.8308563828468323,0,0,0,-1,-1,3230.927795875,unknown,2,2026-04-24T18:20:16.323+02:00,null,0,0,0,0,0,0,0,null,798740460.2590986,0,0.75,101.556,1,0.85
2026-04-24T18:21:02.396+02:00,1777047653.571205,53.56895416345577,9.882977505173033,38.55946,-1,-1,-1,-1,9.056828472500998,2.789105338997707,-9999,3276.98051025,0.1744537353515625,-0.5270233154296875,-0.81890869140625,3276.97169925,0.04608369211387307,0.207307325052121,0.5567521275705285,0.006986942607909441,-0.001980416942387819,-0.005121171940118074,0.001772671937942505,0.00494837760925293,0.01265245676040649,XArbitraryZVertical,0.2709550319721876,0.105755755402367,0.05045888154612297,0.9554334284774008,0.1747409850358963,-0.5284316539764404,-0.8307982087135315,0,0,0,-1,-1,3230.927795875,unknown,2,2026-04-24T18:20:16.323+02:00,null,0,0,0,0,0,0,0,null,798740460.2590986,0,0.75,101.556,1,0.85
2026-04-24T18:21:02.406+02:00,1777047653.571205,53.56895416345577,9.882977505173033,38.55946,-1,-1,-1,-1,9.056828472500998,2.789105338997707,-9999,3276.99058525,0.174896240234375,-0.529876708984375,-0.818359375,3276.98177425,0.04604762116423457,0.2073101529702685,0.5567657607185323,-0.004305659327656031,-0.0004032934084534645,-0.0006489255465567112,-0.0002880990505218506,0.00141984224319458,0.01188194751739502,XArbitraryZVertical,0.2709634013104651,0.1057521810279134,0.05044267279726082,0.9554322667196454,0.1747418493032455,-0.5284432172775269,-0.830790638923645,0,0,0,-1,-1,3230.927795875,unknown,2,2026-04-24T18:20:16.323+02:00,null,0,0,0,0,0,0,0,null,798740460.2590986,0,0.75,101.556,1,0.85
2026-04-24T18:21:02.416+02:00,1777047653.571205,53.56895416345577,9.882977505173033,38.55946,-1,-1,-1,-1,9.056828472500998,2.789105338997707,-9999,3277.00066025,0.17645263671875,-0.5333099365234375,-0.8209686279296875,3276.99184925,0.04608880520448416,0.2072644455964171,0.5566711906020723,-0.01445656456053257,-0.003117586486041546,0.003223044332116842,0.0001820921897888184,-0.001513779163360596,0.01248818635940552,XArbitraryZVertical,0.2709171174385308,0.105736218629963,0.05045174252198392,0.9554467456065248,0.1747141778469086,-0.5283629298210144,-0.8308475613594055,0,0,0,-1,-1,3230.927795875,unknown,2,2026-04-24T18:20:16.323+02:00,null,0,0,0,0,0,0,0,null,798740460.2590986,0,0.75,101.556,1,0.85
2026-04-24T18:21:02.426+02:00,1777047653.571205,53.56895416345577,9.882977505173033,38.55946,-1,-1,-1,-1,9.056828472500998,2.789105338997707,-9999,3277.01073525,0.1755218505859375,-0.532562255859375,-0.8264923095703125,3277.00192425,0.04617163794207733,0.2071952218609799,0.5565156592703949,-0.01869871281087399,-0.00249440735206008,0.004807558842003345,0.001779094338417053,-0.005079090595245361,0.009971439838409424,XArbitraryZVertical,0.2708400703803943,0.1057148560603371,0.0504746922849801,0.9554697788111312,0.1746735572814941,-0.5282308459281921,-0.8309400677680969,0,0,0,-1,-1,3230.927795875,unknown,2,2026-04-24T18:20:16.323+02:00,null,0,0,0,0,0,0,0,null,798740460.2590986,0,0.75,101.556,1,0.85
2026-04-24T18:21:02.437+02:00,1777047653.571205,53.56895416345577,9.882977505173033,38.55946,-1,-1,-1,-1,9.056828472500998,2.789105338997707,-9999,3277.02081025,0.1751556396484375,-0.5277557373046875,-0.829437255859375,3277.01199925,0.04628067625504435,0.2071047673178199,0.5563526899792161,-0.01696153171360493,-0.001566295977681875,0.006258715409785509,0.0009057670831680298,-0.004469811916351318,0.004547774791717529,XArbitraryZVertical,0.2707586354591123,0.1056869217464666,0.0505069560806682,0.9554942158388281,0.1746160984039307,-0.5280924439430237,-0.83104008436203,0,0,0,-1,-1,3230.927795875,unknown,2,2026-04-24T18:20:16.323+02:00,null,0,0,0,0,0,0,0,null,798740460.2590986,0,0.75,101.556,1,0.85
2026-04-24T18:21:02.447+02:00,1777047653.571205,53.56895416345577,9.882977505173033,38.55946,-1,-1,-1,-1,9.056828472500998,2.789105338997707,-9999,3277.03088525,0.17645263671875,-0.5245513916015625,-0.8326568603515625,3277.02207425,0.04640932127676572,0.2070474315408312,0.5562602207102465,-0.006238901056349277,-0.0001897080801427364,0.008735388517379761,0.0005771666765213013,0.0002582073211669922,0.001660585403442383,XArbitraryZVertical,0.2707090450468028,0.1056772295196551,0.05055635252854884,0.9555067378577476,0.1745784878730774,-0.5280139446258545,-0.8310979008674622,0,0,0,-1,-1,3230.927795875,unknown,2,2026-04-24T18:20:16.323+02:00,null,0,0,0,0,0,0,0,null,798740460.2590986,0,0.75,101.556,1,0.85
2026-04-24T18:21:02.457+02:00,1777047653.571205,53.56895416345577,9.882977505173033,38.55946,-1,-1,-1,-1,9.056828472500998,2.789105338997707,-9999,3277.04096025,0.178924560546875,-0.5205078125,-0.8300933837890625,3277.03214925,0.04649470280710967,0.2069877233287096,0.5562571131319232,0.003198010148480535,-0.003952488303184509,0.005357168149203062,0.001923456788063049,0.0034598708152771,-0.001546978950500488,XArbitraryZVertical,0.2707045486067586,0.105660266163326,0.05058891422657123,0.9555081932156325,0.1745291948318481,-0.5280113220214844,-0.831109881401062,0,0,0,-1,-1,3230.927795875,unknown,2,2026-04-24T18:20:16.323+02:00,null,0,0,0,0,0,0,0,null,798740460.2590986,0,0.75,101.556,1,0.85
2026-04-24T18:21:02.467+02:00,1777047653.571205,53.56895416345577,9.882977505173033,38.55946,-1,-1,-1,-1,9.056828472500998,2.789105338997707,-9999,3277.05103525,0.181854248046875,-0.5169677734375,-0.8321380615234375,3277.04222425,0.04653216149798541,0.2069517463454996,0.5563765454555444,0.01673991791903973,-0.003051540814340115,0.004904231522232294,0.004438236355781555,0.007604897022247314,0.0009610652923583984,XArbitraryZVertical,0.2707606311557232,0.1056477896483926,0.05060749631840341,0.9554926517865998,0.1744863390922546,-0.5281127095222473,-0.8310544490814209,0,0,0,-1,-1,3230.927795875,unknown,2,2026-04-24T18:20:16.323+02:00,null,0,0,0,0,0,0,0,null,798740460.2590986,0,0.75,101.556,1,0.85
2026-04-24T18:21:02.481+02:00,1777047653.571205,53.56895416345577,9.882977505173033,38.55946,-1,-1,-1,-1,9.056828472500998,2.789105338997707,-9999,3277.06111025,0.1781463623046875,-0.5190582275390625,-0.8307952880859375,3277.05229925,0.04653525773506237,0.2069126516021043,0.5565879815252291,0.02091575413942337,-0.005337598267942667,0.003859739517793059,0.007423356175422668,0.01132446527481079,-0.001186072826385498,XArbitraryZVertical,0.2708626132346601,0.1056288882941737,0.05061350809241469,0.9554654997877079,0.1744309067726135,-0.5282922387123108,-0.830951988697052,0,0,0,-1,-1,3230.927795875,unknown,2,2026-04-24T18:20:16.323+02:00,null,0,0,0,0,0,0,0,null,798740460.2590986,0,0.75,101.556,1,0.85
2026-04-24T18:21:02.487+02:00,1777047653.571205,53.56895416345577,9.882977505173033,38.55946,-1,-1,-1,-1,9.056828472500998,2.789105338997707,-9999,3277.07118525,0.1749725341796875,-0.5237884521484375,-0.8276214599609375,3277.06237425,0.04650308086519784,0.2068598232943368,0.5567893453066803,0.01484694331884384,-0.008366943337023258,0.002304320456460118,0.003781214356422424,0.009405016899108887,6.181001663208008e-05,XArbitraryZVertical,0.270961960166028,0.1055986676169652,0.05060032629258855,0.9554414331657941,0.1743651628494263,-0.5284632444381714,-0.8308570981025696,0,0,0,-1,-1,3230.927795875,unknown,2,2026-04-24T18:20:16.323+02:00,null,0,0,0,0,0,0,0,null,798740460.2590986,0,0.75,101.556,1,0.85
2026-04-24T18:21:02.499+02:00,1777047653.571205,53.56895416345577,9.882977505173033,38.55946,-1,-1,-1,-1,9.056828472500998,2.789105338997707,-9999,3277.08126025,0.1759796142578125,-0.5299072265625,-0.8278656005859375,3277.07244925,0.04648658726127679,0.2068101348524491,0.5569513419817388,0.00996270589530468,-0.007100344635546207,-0.0007436674786731601,0.0006662607192993164,0.004812300205230713,0.003160476684570312,XArbitraryZVertical,0.27104158146729,0.1055721980479279,0.05059323629465641,0.9554221555276374,0.1743062883615494,-0.5286007523536682,-0.8307819366455078,0,0,0,-1,-1,3230.927795875,unknown,2,2026-04-24T18:20:16.323+02:00,null,0,0,0,0,0,0,0,null,798740460.2590986,0,0.75,101.556,1,0.85
2026-04-24T18:21:02.507+02:00,1777047653.571205,53.56895416345577,9.882977505173033,38.55946,-1,-1,-1,-1,9.056828472500998,2.789105338997707,-9999,3277.09133525,0.1740570068359375,-0.5313873291015625,-0.8286895751953125,3277.08252425,0.04647771024595783,0.206767770223982,0.5570623972832769,0.005334611050784588,-0.003795894794166088,0.003448014846071601,0.001720577478408813,-0.001212239265441895,0.002866268157958984,XArbitraryZVertical,0.2710962484079156,0.1055504166191274,0.05058841029954754,0.9554093022751959,0.1742590367794037,-0.5286949872970581,-0.8307318687438965,0,0,0,-1,-1,3230.927795875,unknown,2,2026-04-24T18:20:16.323+02:00,null,0,0,0,0,0,0,0,null,798740460.2590986,0,0.75,101.556,1,0.85
2026-04-24T18:21:02.517+02:00,1777047653.571205,53.56895416345577,9.882977505173033,38.55946,-1,-1,-1,-1,9.056828472500998,2.789105338997707,-9999,3277.10141025,0.1728973388671875,-0.534393310546875,-0.8277130126953125,3277.09259925,0.04649904099819484,0.2067237950411284,0.5571366144412512,0.003084506141021848,-0.002844879403710365,0.003897556336596608,-0.0001574307680130005,-0.002629339694976807,0.002011537551879883,XArbitraryZVertical,0.2711317394082993,0.1055320740144025,0.05059608427063977,0.9554008455572864,0.1742144525051117,-0.5287579894065857,-0.8307011127471924,0,0,0,-1,-1,3230.927795875,unknown,2,2026-04-24T18:20:16.323+02:00,null,0,0,0,0,0,0,0,null,798740460.2590986,0,0.75,101.556,1,0.85
2026-04-24T18:21:02.527+02:00,1777047653.571205,53.56895416345577,9.882977505173033,38.55946,-1,-1,-1,-1,9.056828472500998,2.789105338997707,-9999,3277.11148525,0.173553466796875,-0.53497314453125,-0.8260650634765625,3277.10267425,0.04653254674211318,0.2067076106699139,0.557169906825046,-6.622634828090668e-05,0.003619145136326551,0.007156466599553823,-0.001300036907196045,-0.005607068538665771,0.002973675727844238,XArbitraryZVertical,0.2711462976310096,0.1055287791446707,0.05061143705080641,0.9553962955949971,0.1741974055767059,-0.5287862420082092,-0.8306867480278015,0,0,0,-1,-1,3230.927795875,unknown,2,2026-04-24T18:20:16.323+02:00,null,0,0,0,0,0,0,0,null,798740460.2590986,0,0.75,101.556,1,0.85
2026-04-24T18:21:02.537+02:00,1777047653.571205,53.56895416345577,9.882977505173033,38.55946,-1,-1,-1,-1,9.056828472500998,2.789105338997707,-9999,3277.12156025,0.1745452880859375,-0.534423828125,-0.8257598876953125,3277.11274925,0.04660532384744315,0.2067374020931887,0.5571616367576646,0.0008717389428056777,0.01015800423920155,0.005527144763618708,-0.0006695538759231567,-0.006193876266479492,0.004620671272277832,XArbitraryZVertical,0.2711377905030885,0.1055529215192063,0.05064987537161063,0.9553938572831731,0.1742230355739594,-0.5287792682647705,-0.8306857347488403,0,0,0,-1,-1,3230.927795875,unknown,2,2026-04-24T18:20:16.323+02:00,null,0,0,0,0,0,0,0,null,798740460.2590986,0,0.75,101.556,1,0.85
2026-04-24T18:21:02.547+02:00,1777047653.571205,53.56895416345577,9.882977505173033,38.55946,-1,-1,-1,-1,9.056828472500998,2.789105338997707,-9999,3277.131634041667,0.172943115234375,-0.5300445556640625,-0.8243865966796875,3277.12282425,0.04670220591880593,0.2067785409723298,0.5571827437404975,0.006290312856435776,0.006914007943123579,0.01058681774884462,0.0002903789281845093,-0.005626678466796875,0.004907786846160889,XArbitraryZVertical,0.2711417220870519,0.1055856397176906,0.05070270851460376,0.9553863538678807,0.1742549240589142,-0.5287971496582031,-0.8306676745414734,0,0,0,-1,-1,3230.927795875,unknown,2,2026-04-24T18:20:16.323+02:00,null,0,0,0,0,0,0,0,null,798740460.2590986,0,0.75,101.556,1,0.85
2026-04-24T18:21:02.557+02:00,1777047653.571205,53.56895416345577,9.882977505173033,38.55946,-1,-1,-1,-1,9.056828472500998,2.789105338997707,-9999,3277.141709041667,0.1719512939453125,-0.523529052734375,-0.8206329345703125,3277.132898041667,0.0467955010280745,0.2068218583334752,0.5572131533479361,0.008099664002656937,0.005889756139367819,0.009853915311396122,-0.001344457268714905,-0.001221597194671631,0.006257772445678711,XArbitraryZVertical,0.2711502487818369,0.1056188908912017,0.05075456066720901,0.9553774884834653,0.1742876023054123,-0.5288229584693909,-0.8306443691253662,0,0,0,-1,-1,3230.927795875,unknown,2,2026-04-24T18:20:16.323+02:00,null,0,0,0,0,0,0,0,null,798740460.2590986,0,0.75,101.556,1,0.85
2026-04-24T18:21:02.568+02:00,1777047653.571205,53.56895416345577,9.882977505173033,38.55946,-1,-1,-1,-1,9.056828472500998,2.789105338997707,-9999,3277.151784041667,0.1722564697265625,-0.5243072509765625,-0.822845458984375,3277.142973041667,0.04690399162461546,0.2068306732555867,0.5572698696669557,0.007051710970699787,0.006028240546584129,0.01163217425346375,-0.002337455749511719,0.005342066287994385,0.009980559349060059,XArbitraryZVertical,0.2711714275283231,0.1056376420938155,0.05081021310540836,0.9553664388586997,0.1742887645959854,-0.5288711190223694,-0.8306134939193726,0,0,0,-1,-1,3230.927795875,unknown,2,2026-04-24T18:20:16.323+02:00,null,0,0,0,0,0,0,0,null,798740460.2590986,0,0.75,101.556,1,0.85
2026-04-24T18:21:02.578+02:00,1777047653.571205,53.56895416345577,9.882977505173033,38.55946,-1,-1,-1,-1,9.056828472500998,2.789105338997707,-9999,3277.161859041667,0.1704254150390625,-0.5255126953125,-0.82574462890625,3277.153048041667,0.04702863207655472,0.2068137785123567,0.557283547085857,-0.002364960499107838,0.00160286552272737,0.01029287092387676,-0.002016767859458923,0.004575490951538086,0.007763922214508057,XArbitraryZVertical,0.271171825020713,0.1056464347573102,0.05086809925460788,0.9553622423661728,0.1742732375860214,-0.5288827419281006,-0.8306093215942383,0,0,0,-1,-1,3230.927795875,unknown,2,2026-04-24T18:20:16.323+02:00,null,0,0,0,0,0,0,0,null,798740460.2590986,0,0.75,101.556,1,0.85
2026-04-24T18:21:02.588+02:00,1777047653.571205,53.56895416345577,9.882977505173033,38.55946,-1,-1,-1,-1,9.056828472500998,2.789105338997707,-9999,3277.171934041667,0.170379638671875,-0.525604248046875,-0.827728271484375,3277.163123041667,0.04714697114342457,0.2067484383305333,0.5572495755148749,-0.008769862353801727,-0.004016137681901455,0.008892381563782692,-0.003797233104705811,0.003341138362884521,0.004893720149993896,XArbitraryZVertical,0.2711509638018861,0.1056313568030122,0.05091418394165122,0.9553674539173004,0.1742226630449295,-0.5288538932800293,-0.8306383490562439,0,0,0,-1,-1,3230.927795875,unknown,2,2026-04-24T18:20:16.323+02:00,null,0,0,0,0,0,0,0,null,798740460.2590986,0,0.75,101.556,1,0.85
2026-04-24T18:21:02.598+02:00,1777047653.571205,53.56895416345577,9.882977505173033,38.55946,-1,-1,-1,-1,9.056828472500998,2.789105338997707,-9999,3277.182009041667,0.1712646484375,-0.52569580078125,-0.832427978515625,3277.173198041667,0.04725108520171389,0.2066813218368922,0.5571627891096728,-0.01262052729725838,-0.0001124762929975986,0.00566196721047163,-0.003796666860580444,0.003175973892211914,0.002966701984405518,XArbitraryZVertical,0.2711056553190603,0.1056136599491794,0.05095079435288617,0.9553803320882814,0.1741763353347778,-0.5287802219390869,-0.8306949734687805,0,0,0,-1,-1,3230.927795875,unknown,2,2026-04-24T18:20:16.323+02:00,null,0,0,0,0,0,0,0,null,798740460.2590986,0,0.75,101.556,1,0.85
2026-04-24T18:21:02.608+02:00,1777047653.571205,53.56895416345577,9.882977505173033,38.55946,-1,-1,-1,-1,9.056828472500998,2.789105338997707,-9999,3277.192084041667,0.169403076171875,-0.524200439453125,-0.834869384765625,3277.183273041667,0.04732019084821702,0.2066369039674111,0.5570934866412465,-0.007601054850965738,-0.002049126662313938,0.0008724051294848323,-0.002882286906242371,0.003025591373443604,-0.001689434051513672,XArbitraryZVertical,0.2710699754839481,0.1056020029836258,0.05097456925697176,0.9553905135644821,0.1741469502449036,-0.5287213921546936,-0.8307385444641113,0,0,0,-1,-1,3230.927795875,unknown,2,2026-04-24T18:20:16.323+02:00,null,0,0,0,0,0,0,0,null,798740460.2590986,0,0.75,101.556,1,0.85
2026-04-24T18:21:02.618+02:00,1777047653.571205,53.56895416345577,9.882977505173033,38.55946,-1,-1,-1,-1,9.056828472500998,2.789105338997707,-9999,3277.202159041667,0.1677398681640625,-0.520294189453125,-0.8350830078125,3277.193348041667,0.04731581844221643,0.2066413091750165,0.5571430618083986,0.009068203158676624,0.0005983216688036919,-0.0008831506129354239,-0.004742145538330078,0.004563033580780029,-0.00415724515914917,XArbitraryZVertical,0.2710938168431725,0.1056033761748617,0.0509753777279899,0.9553835273455902,0.1741452366113663,-0.528763473033905,-0.8307121396064758,0,0,0,-1,-1,3230.927795875,unknown,2,2026-04-24T18:20:16.323+02:00,null,0,0,0,0,0,0,0,null,798740460.2590986,0,0.75,101.556,1,0.85
2026-04-24T18:21:02.628+02:00,1777047653.571205,53.56895416345577,9.882977505173033,38.55946,-1,-1,-1,-1,9.056828472500998,2.789105338997707,-9999,3277.212234041667,0.1729888916015625,-0.5170135498046875,-0.8308563232421875,3277.203423041667,0.04723293667302299,0.2066591488139086,0.5573030072028158,0.01828242093324661,-0.009048713371157646,-0.004128478933125734,-0.00640280544757843,0.008605062961578369,-0.004456758499145508,XArbitraryZVertical,0.2711742384394908,0.1056001966615104,0.05094561130851878,0.955362680711349,0.1741427034139633,-0.5288992524147034,-0.8306262493133545,0,0,0,-1,-1,3230.927795875,unknown,2,2026-04-24T18:20:16.323+02:00,null,0,0,0,0,0,0,0,null,798740460.2590986,0,0.75,101.556,1,0.85
2026-04-24T18:21:02.638+02:00,1777047653.571205,53.56895416345577,9.882977505173033,38.55946,-1,-1,-1,-1,9.056828472500998,2.789105338997707,-9999,3277.222309041667,0.1790924072265625,-0.5221405029296875,-0.827423095703125,3277.213498041667,0.04717589635430802,0.2065781029547072,0.5575231015616167,0.0221253614872694,-0.01491831988096237,0.002629558788612485,-0.001062586903572083,0.01207244396209717,-0.0003299117088317871,XArbitraryZVertical,0.2712845953206033,0.105553110290181,0.05091757098855156,0.9553380449053831,0.1740514934062958,-0.5290859937667847,-0.8305264115333557,0,0,0,-1,-1,3230.927795875,unknown,2,2026-04-24T18:20:16.323+02:00,null,0,0,0,0,0,0,0,null,798740460.2590986,0,0.75,101.556,1,0.85
2026-04-24T18:21:02.648+02:00,1777047653.571205,53.56895416345577,9.882977505173033,38.55946,-1,-1,-1,-1,9.056828472500998,2.789105338997707,-9999,3277.232384041667,0.177825927734375,-0.5309600830078125,-0.822601318359375,3277.223573041667,0.04715725465334266,0.2064069990325511,0.5577046011324761,0.01108639966696501,-0.01776443980634212,0.006252855993807316,0.005202725529670715,0.007099509239196777,0.003039062023162842,XArbitraryZVertical,0.2713767732444342,0.1054683337781806,0.05089386607959764,0.9553224160018208,0.173889696598053,-0.5292400121688843,-0.8304621577262878,0,0,0,-1,-1,3230.927795875,unknown,2,2026-04-24T18:20:16.323+02:00,null,0,0,0,0,0,0,0,null,798740460.2590986,0,0.75,101.556,1,0.85
2026-04-24T18:21:02.658+02:00,1777047653.571205,53.56895416345577,9.882977505173033,38.55946,-1,-1,-1,-1,9.056828472500998,2.789105338997707,-9999,3277.242459041667,0.1783599853515625,-0.53485107421875,-0.815093994140625,3277.233648041667,0.04725109253886994,0.2061331447845365,0.5577237913698043,-0.01159627642482519,-0.02604181133210659,0.01186946220695972,0.004165753722190857,-0.001703798770904541,0.007898509502410889,XArbitraryZVertical,0.2713879741868081,0.1053502003716009,0.05090241600420879,0.9553318201050554,0.1736601889133453,-0.529256284236908,-0.8304998278617859,0,0,0,-1,-1,3230.927795875,unknown,2,2026-04-24T18:20:16.323+02:00,null,0,0,0,0,0,0,0,null,798740460.2590986,0,0.75,101.556,1,0.85
2026-04-24T18:21:02.668+02:00,1777047653.571205,53.56895416345577,9.882977505173033,38.55946,-1,-1,-1,-1,9.056828472500998,2.789105338997707,-9999,3277.252534041667,0.1793365478515625,-0.533905029296875,-0.814117431640625,3277.243723041667,0.04748321406066106,0.2057238046800707,0.5575479826195059,-0.02601351030170918,-0.02816807851195335,0.01750164851546288,0.005020767450332642,-0.005743980407714844,0.01556789875030518,XArbitraryZVertical,0.2713020917667701,0.1051866604059971,0.05094964873236147,0.9553716831347944,0.1733392179012299,-0.5291070938110352,-0.8306618928909302,0,0,0,-1,-1,3230.927795875,unknown,2,2026-04-24T18:20:16.323+02:00,null,0,0,0,0,0,0,0,null,798740460.2590986,0,0.75,101.556,1,0.85
2026-04-24T18:21:02.678+02:00,1777047653.571205,53.56895416345577,9.882977505173033,38.55946,-1,-1,-1,-1,9.056828472500998,2.789105338997707,-9999,3277.262609041667,0.1794891357421875,-0.5328826904296875,-0.816802978515625,3277.253798041667,0.04779755451795061,0.2052708442715817,0.5572742033715558,-0.03962173312902451,-0.02753264829516411,0.02025562524795532,0.006344079971313477,-0.005030214786529541,0.01676470041275024,XArbitraryZVertical,0.2711661544067779,0.1050136557609907,0.05102577784099812,0.9554252382716942,0.172992467880249,-0.5288747549057007,-0.8308820724487305,0,0,0,-1,-1,3230.927795875,unknown,2,2026-04-24T18:20:16.323+02:00,null,0,0,0,0,0,0,0,null,798740460.2590986,0,0.75,101.556,1,0.85
2026-04-24T18:21:02.688+02:00,1777047653.571205,53.56895416345577,9.882977505173033,38.55946,-1,-1,-1,-1,9.056828472500998,2.789105338997707,-9999,3277.272684041667,0.1798858642578125,-0.5303192138671875,-0.819610595703125,3277.263873041667,0.04819086286136601,0.2048000304567622,0.5568869891437696,-0.04526017606258392,-0.02451928146183491,0.02711978927254677,0.006846249103546143,-0.004336535930633545,0.01436096429824829,XArbitraryZVertical,0.2709723078432941,0.1048430479896249,0.05113209127212657,0.9554932559868187,0.1726428866386414,-0.5285460948944092,-0.8311638832092285,0,0,0,-1,-1,3230.927795875,unknown,2,2026-04-24T18:20:16.323+02:00,null,0,0,0,0,0,0,0,null,798740460.2590986,0,0.75,101.556,1,0.85
2026-04-24T18:21:02.698+02:00,1777047653.571205,53.56895416345577,9.882977505173033,38.55946,-1,-1,-1,-1,9.056828472500998,2.789105338997707,-9999,3277.282759041667,0.17889404296875,-0.525970458984375,-0.82196044921875,3277.273948041667,0.04863420308862509,0.2043125769939631,0.5564985505252483,-0.04222284257411957,-0.02531263791024685,0.03054354898631573,0.007606521248817444,-0.002102911472320557,0.01183837652206421,XArbitraryZVertical,0.2707756847117567,0.1046711407154837,0.05126009395046777,0.9555610991229411,0.1722793728113174,-0.5282163023948669,-0.8314489722251892,0,0,0,-1,-1,3230.927795875,unknown,2,2026-04-24T18:20:16.323+02:00,null,0,0,0,0,0,0,0,null,798740460.2590986,0,0.75,101.556,1,0.85
2026-04-24T18:21:02.708+02:00,1777047653.571205,53.56895416345577,9.882977505173033,38.55946,-1,-1,-1,-1,9.056828472500998,2.789105338997707,-9999,3277.292834041667,0.1766815185546875,-0.5206451416015625,-0.8261260986328125,3277.284023041667,0.04911442562541576,0.2038193184374207,0.5561497926396111,-0.0329788476228714,-0.02205026522278786,0.03164782747626305,0.0069875568151474,0.001949667930603027,0.009753763675689697,XArbitraryZVertical,0.2705963614641952,0.1045012593874157,0.05140687427239365,0.9556225958459491,0.1719065010547638,-0.5279201865196228,-0.8317142128944397,0,0,0,-1,-1,3230.927795875,unknown,2,2026-04-24T18:20:16.323+02:00,null,0,0,0,0,0,0,0,null,798740460.2590986,0,0.75,101.556,1,0.85
2026-04-24T18:21:02.719+02:00,1777047653.571205,53.56895416345577,9.882977505173033,38.55946,-1,-1,-1,-1,9.056828472500998,2.789105338997707,-9999,3277.302909041667,0.1773529052734375,-0.5153656005859375,-0.826934814453125,3277.294098041667,0.04955996827866598,0.203389386757813,0.5559186663826309,-0.02004840224981308,-0.01519875042140484,0.03521273285150528,0.005107983946800232,0.007078707218170166,0.005781412124633789,XArbitraryZVertical,0.270473571316749,0.1043565930089755,0.05155109842845395,0.955665383844587,0.1715735495090485,-0.5277238488197327,-0.8319075107574463,0,0,0,-1,-1,3230.927795875,unknown,2,2026-04-24T18:20:16.323+02:00,null,0,0,0,0,0,0,0,null,798740460.2590986,0,0.75,101.556,1,0.85
2026-04-24T18:21:02.730+02:00,1777047653.571205,53.56895416345577,9.882977505173033,38.55946,-1,-1,-1,-1,9.056828472500998,2.789105338997707,-9999,3277.312983041667,0.17474365234375,-0.516143798828125,-0.827362060546875,3277.304173041667,0.05000713777301759,0.2030076489693168,0.5558675389585248,-0.007117903791368008,-0.02016075327992439,0.03908483684062958,0.006091505289077759,0.01231479644775391,0.005064547061920166,XArbitraryZVertical,0.2704356295043182,0.1042347515887885,0.05171082736405054,0.9556808287734192,0.1712613999843597,-0.5276803970336914,-0.8319993615150452,0,0,0,-1,-1,3230.927795875,unknown,2,2026-04-24T18:20:16.323+02:00,null,0,0,0,0,0,0,0,null,798740460.2590986,0,0.75,101.556,1,0.85
2026-04-24T18:21:02.741+02:00,1777047653.571205,53.56895416345577,9.882977505173033,38.55946,-1,-1,-1,-1,9.056828472500998,2.789105338997707,-9999,3277.323058041667,0.1719512939453125,-0.520233154296875,-0.8283843994140625,3277.314247041667,0.05042603857018121,0.2026235178530409,0.5559295519408471,-0.001216871780343354,-0.01945075392723083,0.0372171625494957,0.003808453679084778,0.01158928871154785,0.004670977592468262,XArbitraryZVertical,0.2704534448280904,0.1041077319999068,0.05186186199711099,0.9556814070258475,0.1709352135658264,-0.5277330875396729,-0.8320330381393433,0,0,0,-1,-1,3230.927795875,unknown,2,2026-04-24T18:20:16.323+02:00,null,0,0,0,0,0,0,0,null,798740460.2590986,0,0.75,101.556,1,0.85
2026-04-24T18:21:02.750+02:00,1777047653.571205,53.56895416345577,9.882977505173033,38.55946,-1,-1,-1,-1,9.056828472500998,2.789105338997707,-9999,3277.333133041667,0.1724090576171875,-0.5240020751953125,-0.8320770263671875,3277.324322041667,0.05084271474121636,0.2022136395222863,0.5560278264053543,-0.00812244787812233,-0.02184866368770599,0.03773881122469902,0.001367554068565369,0.007583379745483398,0.003667831420898438,XArbitraryZVertical,0.2704894450181542,0.1039680546869436,0.05200997050777798,0.9556783645931486,0.1705837398767471,-0.5278165936470032,-0.8320522308349609,0,0,0,-1,-1,3230.927795875,unknown,2,2026-04-24T18:20:16.323+02:00,null,0,0,0,0,0,0,0,null,798740460.2590986,0,0.75,101.556,1,0.85
2026-04-24T18:21:02.759+02:00,1777047653.571205,53.56895416345577,9.882977505173033,38.55946,-1,-1,-1,-1,9.056828472500998,2.789105338997707,-9999,3277.343208041667,0.17034912109375,-0.52899169921875,-0.8339080810546875,3277.334397041667,0.05124850959451239,0.2017865002008876,0.556026301233143,-0.01883687824010849,-0.02745062299072742,0.03210622444748878,0.002180576324462891,0.003813207149505615,4.881620407104492e-05,XArbitraryZVertical,0.270478757101843,0.103818832259111,0.05214604032904793,0.9556901989616811,0.1702284812927246,-0.5278152823448181,-0.8321257829666138,0,0,0,-1,-1,3230.927795875,unknown,2,2026-04-24T18:20:16.323+02:00,null,0,0,0,0,0,0,0,null,798740460.2590986,0,0.75,101.556,1,0.85
2026-04-24T18:21:02.769+02:00,1777047653.571205,53.56895416345577,9.882977505173033,38.55946,-1,-1,-1,-1,9.056828472500998,2.789105338997707,-9999,3277.353283041667,0.1677703857421875,-0.5338287353515625,-0.8311004638671875,3277.344472041667,0.05163972004908303,0.2013579958304838,0.5559121804424851,-0.02562197484076023,-0.02593901380896568,0.03331609815359116,0.0004651844501495361,-0.001273393630981445,-0.001650393009185791,XArbitraryZVertical,0.2704150195634077,0.1036671349111172,0.05226991211477242,0.9557179926623877,0.1698839515447617,-0.5277183651924133,-0.8322576880455017,0,0,0,-1,-1,3230.927795875,unknown,2,2026-04-24T18:20:16.323+02:00,null,0,0,0,0,0,0,0,null,798740460.2590986,0,0.75,101.556,1,0.85
2026-04-24T18:21:02.779+02:00,1777047653.571205,53.56895416345577,9.882977505173033,38.55946,-1,-1,-1,-1,9.056828472500998,2.789105338997707,-9999,3277.363358041667,0.167694091796875,-0.5324859619140625,-0.8292694091796875,3277.354547041667,0.05205378675994399,0.2008942618456768,0.555723522025196,-0.03116214834153652,-0.02653263323009014,0.03049954026937485,-0.001747444272041321,-0.006270647048950195,0.001333415508270264,XArbitraryZVertical,0.2703154438518067,0.1035017740747792,0.05239666646646725,0.9557570604950283,0.16951784491539,-0.5275580883026123,-0.8324338793754578,0,0,0,-1,-1,3230.927795875,unknown,2,2026-04-24T18:20:16.323+02:00,null,0,0,0,0,0,0,0,null,798740460.2590986,0,0.75,101.556,1,0.85
2026-04-24T18:21:02.789+02:00,1777047653.571205,53.56895416345577,9.882977505173033,38.55946,-1,-1,-1,-1,9.056828472500998,2.789105338997707,-9999,3277.373433041667,0.1645965576171875,-0.528594970703125,-0.830657958984375,3277.364622041667,0.05242979566078331,0.2004803423381327,0.5554977666452585,-0.02870143949985504,-0.02656272426247597,0.02368244715034962,-0.001502871513366699,-0.005119681358337402,0.003351271152496338,XArbitraryZVertical,0.2701988105264402,0.1033550568775922,0.05251036045138437,0.9557996636021717,0.1691969782114029,-0.5273662805557251,-0.8326206803321838,0,0,0,-1,-1,3230.927795875,unknown,2,2026-04-24T18:20:16.323+02:00,null,0,0,0,0,0,0,0,null,798740460.2590986,0,0.75,101.556,1,0.85
2026-04-24T18:21:02.799+02:00,1777047653.571205,53.56895416345577,9.882977505173033,38.55946,-1,-1,-1,-1,9.056828472500998,2.789105338997707,-9999,3277.383508041667,0.1611175537109375,-0.5255889892578125,-0.8302001953125,3277.374697041667,0.05276048613022342,0.2001031154734177,0.5552780957679517,-0.02219453826546669,-0.01999989710748196,0.02203315123915672,-0.004309341311454773,-0.001415371894836426,0.002140045166015625,XArbitraryZVertical,0.2700864877667238,0.1032196814977886,0.05260767227091303,0.955840744675391,0.1689059138298035,-0.5271796584129333,-0.8327979445457458,0,0,0,-1,-1,3230.927795875,unknown,2,2026-04-24T18:20:16.323+02:00,null,0,0,0,0,0,0,0,null,798740460.2590986,0,0.75,101.556,1,0.85
2026-04-24T18:21:02.809+02:00,1777047653.571205,53.56895416345577,9.882977505173033,38.55946,-1,-1,-1,-1,9.056828472500998,2.789105338997707,-9999,3277.393583041667,0.1594696044921875,-0.52679443359375,-0.8352508544921875,3277.384772041667,0.05302905902839667,0.1998372229624097,0.5551216273197334,-0.01189103443175554,-0.006091538816690445,0.02095457166433334,-0.007583275437355042,0.001457631587982178,0.002723515033721924,XArbitraryZVertical,0.2700047355801313,0.1031290258752168,0.05269318424344074,0.9558689272364223,0.1687008440494537,-0.5270466804504395,-0.8329237103462219,0,0,0,-1,-1,3230.927795875,unknown,2,2026-04-24T18:20:16.323+02:00,null,0,0,0,0,0,0,0,null,798740460.2590986,0,0.75,101.556,1,0.85
2026-04-24T18:21:02.819+02:00,1777047653.571205,53.56895416345577,9.882977505173033,38.55946,-1,-1,-1,-1,9.056828472500998,2.789105338997707,-9999,3277.403658041667,0.1593475341796875,-0.522918701171875,-0.8387298583984375,3277.394847041667,0.05324899706355593,0.1997350867276994,0.5551261048781372,0.009643286466598511,0.003635124303400517,0.01765171810984612,-0.009145691990852356,0.0002560615539550781,-0.002312242984771729,XArbitraryZVertical,0.2699982514825611,0.1031099076518731,0.05278471802719394,0.9558677046386991,0.1686152964830399,-0.5270504951477051,-0.8329386115074158,0,0,0,-1,-1,3230.927795875,unknown,2,2026-04-24T18:20:16.323+02:00,null,0,0,0,0,0,0,0,null,798740460.2590986,0,0.75,101.556,1,0.85
2026-04-24T18:21:02.830+02:00,1777047653.571205,53.56895416345577,9.882977505173033,38.55946,-1,-1,-1,-1,9.056828472500998,2.789105338997707,-9999,3277.413733041667,0.1619720458984375,-0.51971435546875,-0.8326568603515625,3277.404922041667,0.05336814576075271,0.1997052772244506,0.5553023295100397,0.02361209876835346,0.001234550727531314,0.01306628808379173,-0.009224504232406616,0.004281580448150635,-0.005877256393432617,XArbitraryZVertical,0.2700772559490286,0.1031115928746164,0.05284544596836697,0.9558418165697888,0.1685720384120941,-0.5272002220153809,-0.8328525424003601,0,0,0,-1,-1,3230.927795875,unknown,2,2026-04-24T18:20:16.323+02:00,null,0,0,0,0,0,0,0,null,798740460.2590986,0,0.75,101.556,1,0.85
2026-04-24T18:21:02.840+02:00,1777047653.571205,53.56895416345577,9.882977505173033,38.55946,-1,-1,-1,-1,9.056828472500998,2.789105338997707,-9999,3277.423808041667,0.1663665771484375,-0.5251922607421875,-0.8344879150390625,3277.414997041667,0.05343717972693243,0.1996711376445113,0.5555737491814433,0.02704118564724922,-0.004621474072337151,0.009369553998112679,-0.006543174386024475,0.007716536521911621,6.121397018432617e-05,XArbitraryZVertical,0.2702045068928544,0.1031043589956598,0.05288584071771352,0.9558044157961675,0.168515220284462,-0.5274308323860168,-0.8327180147171021,0,0,0,-1,-1,3230.927795875,unknown,2,2026-04-24T18:20:16.323+02:00,null,0,0,0,0,0,0,0,null,798740460.2590986,0,0.75,101.556,1,0.85
2026-04-24T18:21:02.850+02:00,1777047653.571205,53.56895416345577,9.882977505173033,38.55946,-1,-1,-1,-1,9.056828472500998,2.789105338997707,-9999,3277.433883041667,0.1638946533203125,-0.53350830078125,-0.8364715576171875,3277.425072041667,0.05348971528210957,0.1996162124586656,0.5558453481275896,0.02143150195479393,-0.00416873674839735,0.01210728287696838,-0.002074480056762695,0.002469301223754883,-0.001901030540466309,XArbitraryZVertical,0.2703332441980766,0.1030849718482699,0.05291554324375292,0.9557684637434157,0.1684410721063614,-0.5276615619659424,-0.8325868248939514,0,0,0,-1,-1,3230.927795875,unknown,2,2026-04-24T18:20:16.323+02:00,null,0,0,0,0,0,0,0,null,798740460.2590986,0,0.75,101.556,1,0.85
2026-04-24T18:21:02.860+02:00,1777047653.571205,53.56895416345577,9.882977505173033,38.55946,-1,-1,-1,-1,9.056828472500998,2.789105338997707,-9999,3277.443958041667,0.1607818603515625,-0.5357818603515625,-0.83282470703125,3277.435147041667,0.05354717414133893,0.1995627404818809,0.5560371185298756,0.007030458655208349,-0.000772673636674881,0.006177222356200218,-0.00448182225227356,-0.005683839321136475,-0.003974854946136475,XArbitraryZVertical,0.2704234642266872,0.1030670133748485,0.05294424828783169,0.9557433459626299,0.1683764904737473,-0.5278244614601135,-0.832496702671051,0,0,0,-1,-1,3230.927795875,unknown,2,2026-04-24T18:20:16.323+02:00,null,0,0,0,0,0,0,0,null,798740460.2590986,0,0.75,101.556,1,0.85
2026-04-24T18:21:02.870+02:00,1777047653.571205,53.56895416345577,9.882977505173033,38.55946,-1,-1,-1,-1,9.056828472500998,2.789105338997707,-9999,3277.454033041667,0.15948486328125,-0.5272064208984375,-0.8318939208984375,3277.445222041667,0.05359175140762482,0.199564854605476,0.5561562923388504,0.009096752852201462,0.00274589448235929,0.00376732787117362,-0.007583916187286377,-0.007856190204620361,-0.0003900527954101562,XArbitraryZVertical,0.2704781337250167,0.1030739437314783,0.05297110050815681,0.9557256875092619,0.1683657765388489,-0.5279256701469421,-0.8324346542358398,0,0,0,-1,-1,3230.927795875,unknown,2,2026-04-24T18:20:16.323+02:00,null,0,0,0,0,0,0,0,null,798740462.8362647,0,0.7599998,101.5559,1,0.85
2026-04-24T18:21:02.880+02:00,1777047653.571205,53.56895416345577,9.882977505173033,38.55946,-1,-1,-1,-1,9.056828472500998,2.789105338997707,-9999,3277.464108041667,0.1601715087890625,-0.5235137939453125,-0.8332672119140625,3277.455297041667,0.05357500429077183,0.1996003113854831,0.5562746905523737,0.01237696781754494,0.005198399536311626,-0.003616285976022482,-0.008898019790649414,0.0008198022842407227,0.0004734992980957031,XArbitraryZVertical,0.2705347274524325,0.1030885230983316,0.05297313149914851,0.9557079657805954,0.1683828979730606,-0.5280262231826782,-0.8323674201965332,0,0,0,-1,-1,3230.927795875,unknown,2,2026-04-24T18:20:16.323+02:00,null,0,0,0,0,0,0,0,null,798740462.8362647,0,0.7599998,101.5559,1,0.85
2026-04-24T18:21:02.890+02:00,1777047653.571205,53.56895416345577,9.882977505173033,38.55946,-1,-1,-1,-1,9.056828472500998,2.789105338997707,-9999,3277.474183041667,0.1648101806640625,-0.5223388671875,-0.8343963623046875,3277.465372041667,0.05353076046714531,0.1996807203440737,0.556432149644342,0.02485094778239727,0.01156921312212944,0.001377740176394582,-0.008261814713478088,0.004646182060241699,-0.0009948015213012695,XArbitraryZVertical,0.2706102611059467,0.1031208351931442,0.05296984393760839,0.9556831895410961,0.1684333235025406,-0.5281599164009094,-0.8322723507881165,0,0,0,-1,-1,3230.927795875,unknown,2,2026-04-24T18:20:16.323+02:00,null,0,0,0,0,0,0,0,null,798740462.8362647,0,0.7599998,101.5559,1,0.85
2026-04-24T18:21:02.900+02:00,1777047653.571205,53.56895416345577,9.882977505173033,38.55946,-1,-1,-1,-1,9.056828472500998,2.789105338997707,-9999,3277.484258041667,0.1687774658203125,-0.521636962890625,-0.834503173828125,3277.475447041667,0.05346607617979817,0.1998144438866959,0.5566938385679208,0.02254118770360947,0.009827239438891411,-0.003289715852588415,-0.003706991672515869,0.00604325532913208,-0.002282023429870605,XArbitraryZVertical,0.2707352901080785,0.1031757438290017,0.05296861658329385,0.9556419200067362,0.1685171872377396,-0.5283821225166321,-0.8321143388748169,0,0,0,-1,-1,3230.927795875,unknown,2,2026-04-24T18:20:16.323+02:00,null,0,0,0,0,0,0,0,null,798740462.8362647,0,0.7599998,101.5559,1,0.85
2026-04-24T18:21:02.910+02:00,1777047653.571205,53.56895416345577,9.882977505173033,38.55946,-1,-1,-1,-1,9.056828472500998,2.789105338997707,-9999,3277.494333041667,0.1707000732421875,-0.5160675048828125,-0.818267822265625,3277.485522041667,0.0534144870127836,0.1998375912151582,0.5569288175900527,0.03385232388973236,-0.0008168821223080158,-0.0003845400642603636,0.0002656877040863037,0.006944656372070312,-0.002514421939849854,XArbitraryZVertical,0.2708497720891627,0.1031795959463,0.05295750027735151,0.9556097296076539,0.1685117930173874,-0.5285816192626953,-0.8319887518882751,0,0,0,-1,-1,3230.927795875,unknown,2,2026-04-24T18:20:16.323+02:00,null,0,0,0,0,0,0,0,null,798740462.8362647,0,0.7599998,101.5559,1,0.85
2026-04-24T18:21:02.920+02:00,1777047653.571205,53.56895416345577,9.882977505173033,38.55946,-1,-1,-1,-1,9.056828472500998,2.789105338997707,-9999,3277.504408041667,0.171142578125,-0.5177764892578125,-0.81842041015625,3277.495597041667,0.05334453702112917,0.1997941187624778,0.5572670037619647,0.03604810312390327,-0.01047004200518131,-0.00144447828643024,0.002259954810142517,0.01280117034912109,0.01355302333831787,XArbitraryZVertical,0.2710163584337183,0.1031490288089814,0.05293316327465511,0.9555671587754336,0.1684401482343674,-0.5288686752319336,-0.8318208456039429,0,0,0,-1,-1,3230.927795875,unknown,2,2026-04-24T18:20:16.323+02:00,null,0,0,0,0,0,0,0,null,798740462.8362647,0,0.7599998,101.5559,1,0.85
2026-04-24T18:21:02.930+02:00,1777047653.571205,53.56895416345577,9.882977505173033,38.55946,-1,-1,-1,-1,9.056828472500998,2.789105338997707,-9999,3277.514483041667,0.1732025146484375,-0.5287017822265625,-0.8276519775390625,3277.505672041667,0.05333004572843038,0.1996852128999983,0.5576113978313031,0.03943436220288277,-0.007035630289465189,0.01444986648857594,0.002829179167747498,0.01138442754745483,0.01324021816253662,XArbitraryZVertical,0.271184775193076,0.1030946998735403,0.05292671801216593,0.955525620019855,0.1683134138584137,-0.5291609168052673,-0.8316606283187866,0,0,0,-1,-1,3230.927795875,unknown,2,2026-04-24T18:20:16.323+02:00,null,0,0,0,0,0,0,0,null,798740462.8362647,0,0.7599998,101.5559,1,0.85
2026-04-24T18:21:02.941+02:00,1777047653.571205,53.56895416345577,9.882977505173033,38.55946,-1,-1,-1,-1,9.056828472500998,2.789105338997707,-9999,3277.524558041667,0.1756439208984375,-0.5399627685546875,-0.8242034912109375,3277.515747041667,0.05343288010041401,0.1994626293378713,0.5578993724404451,0.009111345745623112,-0.02182895690202713,0.01692021451890469,0.00510445237159729,0.0007034540176391602,0.003896653652191162,XArbitraryZVertical,0.2713231764920998,0.1030020421156287,0.0529583982924928,0.9554945143081918,0.1680980920791626,-0.5294052362442017,-0.8315486311912537,0,0,0,-1,-1,3230.927795875,unknown,2,2026-04-24T18:20:16.323+02:00,null,0,0,0,0,0,0,0,null,798740462.8362647,0,0.7599998,101.5559,1,0.85
2026-04-24T18:21:02.950+02:00,1777047653.571205,53.56895416345577,9.882977505173033,38.55946,-1,-1,-1,-1,9.056828472500998,2.789105338997707,-9999,3277.534633041667,0.176177978515625,-0.5364532470703125,-0.815826416015625,3277.525822041667,0.05366837431547834,0.1990405727197856,0.5580032840576951,0.004353023134171963,-0.02921203896403313,0.0241897776722908,0.007907703518867493,-0.01046937704086304,0.007362067699432373,XArbitraryZVertical,0.2713719697502333,0.1028322683721758,0.05301823190473016,0.9554955929037843,0.1677362322807312,-0.5294933915138245,-0.8315655589103699,0,0,0,-1,-1,3230.927795875,unknown,2,2026-04-24T18:20:16.323+02:00,null,0,0,0,0,0,0,0,null,798740462.8362647,0,0.7599998,101.5559,1,0.85
2026-04-24T18:21:02.961+02:00,1777047653.571205,53.56895416345577,9.882977505173033,38.55946,-1,-1,-1,-1,9.056828472500998,2.789105338997707,-9999,3277.544708041667,0.17779541015625,-0.5440521240234375,-0.8238983154296875,3277.535897041667,0.05397409278208368,0.1985326389811552,0.5579400828286644,-0.03564872220158577,-0.04031449183821678,0.02215112745761871,0.008857563138008118,-0.007013440132141113,0.0158570408821106,XArbitraryZVertical,0.2713395000467522,0.1026311300741964,0.05309259476746488,0.9555223082801786,0.1673204302787781,-0.5294398069381714,-0.8316834568977356,0,0,0,-1,-1,3230.927795875,unknown,2,2026-04-24T18:20:16.323+02:00,null,0,0,0,0,0,0,0,null,798740462.8362647,0,0.7599998,101.5559,1,0.85
2026-04-24T18:21:02.971+02:00,1777047653.571205,53.56895416345577,9.882977505173033,38.55946,-1,-1,-1,-1,9.056828472500998,2.789105338997707,-9999,3277.554783041667,0.1811981201171875,-0.539215087890625,-0.8151397705078125,3277.545972041667,0.05447378439019693,0.1977631885357235,0.5575470366689594,-0.04755177348852158,-0.04956524819135666,0.03688207268714905,0.01107411086559296,-0.01494580507278442,0.008117616176605225,XArbitraryZVertical,0.2711462589917107,0.1023315201211014,0.05320976075311323,0.9556027929831399,0.1667213141918182,-0.5291063189506531,-0.8320159316062927,0,0,0,-1,-1,3230.927795875,unknown,2,2026-04-24T18:20:16.323+02:00,null,0,0,0,0,0,0,0,null,798740462.8362647,0,0.7599998,101.5559,1,0.85
2026-04-24T18:21:02.981+02:00,1777047653.571205,53.56895416345577,9.882977505173033,38.55946,-1,-1,-1,-1,9.056828472500998,2.789105338997707,-9999,3277.564858041667,0.181671142578125,-0.5342559814453125,-0.814178466796875,3277.556047041667,0.05511940514741381,0.1968563670966698,0.5569587921580674,-0.07602549344301224,-0.06151937693357468,0.0542682558298111,0.01517052948474884,-0.0106080174446106,0.01733207702636719,XArbitraryZVertical,0.2708559202796718,0.1019859494380872,0.05336974321744157,0.9557131668929401,0.1660276055335999,-0.5286070704460144,-0.8324718475341797,0,0,0,-1,-1,3230.927795875,unknown,2,2026-04-24T18:20:16.323+02:00,null,0,0,0,0,0,0,0,null,798740462.8362647,0,0.7599998,101.5559,1,0.85
2026-04-24T18:21:02.991+02:00,1777047653.571205,53.56895416345577,9.882977505173033,38.55946,-1,-1,-1,-1,9.056828472500998,2.789105338997707,-9999,3277.574933041667,0.1808013916015625,-0.529815673828125,-0.809173583984375,3277.566122041667,0.05596616064989269,0.195756820087414,0.5561870120786574,-0.0971364751458168,-0.06893282383680344,0.06340821832418442,0.01647968590259552,-0.006304144859313965,0.01887542009353638,XArbitraryZVertical,0.2704728448621376,0.1015752171919247,0.05359218643778891,0.9558528789329759,0.1651914715766907,-0.5279517769813538,-0.8330538272857666,0,0,0,-1,-1,3230.927795875,unknown,2,2026-04-24T18:20:16.323+02:00,null,0,0,0,0,0,0,0,null,798740462.8362647,0,0.7599998,101.5559,1,0.85
2026-04-24T18:21:03.001+02:00,1777047653.571205,53.56895416345577,9.882977505173033,38.55946,-1,-1,-1,-1,9.056828472500998,2.789105338997707,-9999,3277.585008041667,0.1758880615234375,-0.5244903564453125,-0.8072357177734375,3277.576197041667,0.05698797046050556,0.1945042599016121,0.5552744706554912,-0.1090639755129814,-0.07499364018440247,0.07288587838411331,0.01656047999858856,-0.002639114856719971,0.02455884218215942,XArbitraryZVertical,0.2700178650553267,0.1011144613832259,0.05387212147285567,0.9560146175596939,0.1642409414052963,-0.527176558971405,-0.8337324261665344,0,0,0,-1,-1,3230.927795875,unknown,2,2026-04-24T18:20:16.323+02:00,null,0,0,0,0,0,0,0,null,798740462.8362647,0,0.7599998,101.5559,1,0.85
2026-04-24T18:21:03.011+02:00,1777047653.571205,53.56895416345577,9.882977505173033,38.55946,-1,-1,-1,-1,9.056828472500998,2.789105338997707,-9999,3277.595083041667,0.169830322265625,-0.5162811279296875,-0.8081817626953125,3277.586272041667,0.05812992931771557,0.1931514163352205,0.5543243182824347,-0.1128768175840378,-0.07288947701454163,0.08075805008411407,0.01267911493778229,0.001878559589385986,0.02720940113067627,XArbitraryZVertical,0.2695418492892457,0.1006212594902659,0.0541950704239287,0.956182809166134,0.1632089614868164,-0.5263689160346985,-0.8344451189041138,0,0,0,-1,-1,3230.927795875,unknown,2,2026-04-24T18:20:16.323+02:00,null,0,0,0,0,0,0,0,null,798740462.8362647,0,0.7599998,101.5559,1,0.85
2026-04-24T18:21:03.021+02:00,1777047653.571205,53.56895416345577,9.882977505173033,38.55946,-1,-1,-1,-1,9.056828472500998,2.789105338997707,-9999,3277.605158041667,0.1658782958984375,-0.5103302001953125,-0.8167572021484375,3277.596347041667,0.05933685385286365,0.191832258252356,0.5534168160775451,-0.09859002381563187,-0.05542366951704025,0.08305156230926514,0.007631286978721619,0.009315967559814453,0.02694648504257202,XArbitraryZVertical,0.2690825212317671,0.100152205592561,0.05455620326286188,0.9563409045329913,0.1621990650892258,-0.525597095489502,-0.8351282477378845,0,0,0,-1,-1,3230.927795875,unknown,2,2026-04-24T18:20:16.323+02:00,null,0,0,0,0,0,0,0,null,798740462.8362647,0,0.7599998,101.5559,1,0.85
2026-04-24T18:21:03.031+02:00,1777047653.571205,53.56895416345577,9.882977505173033,38.55946,-1,-1,-1,-1,9.056828472500998,2.789105338997707,-9999,3277.615233041667,0.159576416015625,-0.5050201416015625,-0.82330322265625,3277.606422041667,0.0604997013323438,0.190794720146703,0.5527667225371835,-0.06612513959407806,-0.03768302127718925,0.08460319042205811,0.004481047391891479,0.01471370458602905,0.01887422800064087,XArbitraryZVertical,0.2687414080158125,0.0998115563377243,0.05494556346803739,0.9564501496043987,0.1613972634077072,-0.5250439047813416,-0.8356314301490784,0,0,0,-1,-1,3230.927795875,unknown,2,2026-04-24T18:20:16.323+02:00,null,0,0,0,0,0,0,0,null,798740462.8362647,0,0.7599998,101.5559,1,0.85
2026-04-24T18:21:03.041+02:00,1777047653.571205,53.56895416345577,9.882977505173033,38.55946,-1,-1,-1,-1,9.056828472500998,2.789105338997707,-9999,3277.625308041667,0.1601715087890625,-0.5024871826171875,-0.822021484375,3277.616497041667,0.06157721272138787,0.1898485087693889,0.5523745077615363,-0.04129941761493683,-0.04051342979073524,0.08214296400547028,-0.001068919897079468,0.01968991756439209,0.01268267631530762,XArbitraryZVertical,0.2685259243489947,0.09950311859458257,0.05531749330542179,0.9565213389456031,0.1606453508138657,-0.5247100591659546,-0.8359858989715576,0,0,0,-1,-1,3230.927795875,unknown,2,2026-04-24T18:20:16.323+02:00,null,0,0,0,0,0,0,0,null,798740462.8362647,0,0.7599998,101.5559,1,0.85
2026-04-24T18:21:03.051+02:00,1777047653.571205,53.56895416345577,9.882977505173033,38.55946,-1,-1,-1,-1,9.056828472500998,2.789105338997707,-9999,3277.635383041667,0.1685028076171875,-0.517669677734375,-0.836883544921875,3277.626572041667,0.06263153378967366,0.1888609208782391,0.5521958763542575,-0.02932349964976311,-0.04912129789590836,0.08583583682775497,0.0003342628479003906,0.02207082509994507,0.01421469449996948,XArbitraryZVertical,0.2684154055687167,0.09917196422240758,0.05568181719807902,0.9565655410992051,0.1598372459411621,-0.5245580077171326,-0.8362361788749695,0,0,0,-1,-1,3230.927795875,unknown,2,2026-04-24T18:20:16.323+02:00,null,0,0,0,0,0,0,0,null,798740462.8362647,0,0.7599998,101.5559,1,0.85
2026-04-24T18:21:03.061+02:00,1777047653.571205,53.56895416345577,9.882977505173033,38.55946,-1,-1,-1,-1,9.056828472500998,2.789105338997707,-9999,3277.645458041667,0.166900634765625,-0.5404815673828125,-0.849151611328125,3277.636647041667,0.06371409666843413,0.1877278914750457,0.5519717114943433,-0.05199472606182098,-0.05627401545643806,0.08843747526407242,0.009591206908226013,0.006697475910186768,-0.0003513097763061523,XArbitraryZVertical,0.2682860848727802,0.09877477492199065,0.05603840886616969,0.956622073835103,0.1589116156101227,-0.5243671536445618,-0.8365322351455688,0,0,0,-1,-1,3230.927795875,unknown,2,2026-04-24T18:20:16.323+02:00,null,0,0,0,0,0,0,0,null,798740462.8362647,0,0.7599998,101.5559,1,0.85
2026-04-24T18:21:03.071+02:00,1777047653.571205,53.56895416345577,9.882977505173033,38.55946,-1,-1,-1,-1,9.056828472500998,2.789105338997707,-9999,3277.655533041667,0.15826416015625,-0.546875,-0.852508544921875,3277.646722041667,0.06493886867194762,0.186472208696341,0.5515094856989502,-0.07796699553728104,-0.06492529809474945,0.1013635918498039,0.00899466872215271,-0.01650804281234741,-0.01218235492706299,XArbitraryZVertical,0.2680395496946366,0.09833711061262373,0.0564371431527826,0.9567128730423097,0.1579059809446335,-0.5239735245704651,-0.8369691967964172,0,0,0,-1,-1,3230.927795875,unknown,2,2026-04-24T18:20:16.323+02:00,null,0,0,0,0,0,0,0,null,798740462.8362647,0,0.7599998,101.5559,1,0.85
2026-04-24T18:21:03.081+02:00,1777047653.571205,53.56895416345577,9.882977505173033,38.55946,-1,-1,-1,-1,9.056828472500998,2.789105338997707,-9999,3277.665608041667,0.1584930419921875,-0.5413360595703125,-0.855194091796875,3277.656797041667,0.06630959915995642,0.1850570875285613,0.5508442851892654,-0.09161090105772018,-0.07385727018117905,0.1041601821780205,0.001478657126426697,-0.02346819639205933,-0.01497429609298706,XArbitraryZVertical,0.2676936436908048,0.09784166007149994,0.05687664168873858,0.9568344605331451,0.1567855179309845,-0.5234068036079407,-0.8375342488288879,0,0,0,-1,-1,3230.927795875,unknown,2,2026-04-24T18:20:16.323+02:00,null,0,0,0,0,0,0,0,null,798740462.8362647,0,0.7599998,101.5559,1,0.85
2026-04-24T18:21:03.092+02:00,1777047653.571205,53.56895416345577,9.882977505173033,38.55946,-1,-1,-1,-1,9.056828472500998,2.789105338997707,-9999,3277.675683041667,0.162628173828125,-0.535369873046875,-0.85894775390625,3277.666872041667,0.06769289775104924,0.1835908066668392,0.550188738733311,-0.07774749398231506,-0.07887626439332962,0.1031714826822281,0.002873167395591736,-0.01848798990249634,-0.01709365844726562,XArbitraryZVertical,0.2673537911512999,0.09732281640966021,0.05731629231151993,0.9569562410675582,0.1556199043989182,-0.5228481292724609,-0.8381004333496094,0,0,0,-1,-1,3230.927795875,unknown,2,2026-04-24T18:20:16.323+02:00,null,0,0,0,0,0,0,0,null,798740462.8362647,0,0.7599998,101.5559,1,0.85
2026-04-24T18:21:03.102+02:00,1777047653.571205,53.56895416345577,9.882977505173033,38.55946,-1,-1,-1,-1,9.056828472500998,2.789105338997707,-9999,3277.685758041667,0.16387939453125,-0.5274658203125,-0.857421875,3277.676947041667,0.06899047685188073,0.1821138036882783,0.5497507943341235,-0.04647132754325867,-0.08356449007987976,0.09788750112056732,0.008204877376556396,-0.01289510726928711,-0.0203932523727417,XArbitraryZVertical,0.2671233909750624,0.09678771310331986,0.05772263075378214,0.9570503617167688,0.1544232964515686,-0.5224747657775879,-0.8385544419288635,0,0,0,-1,-1,3230.927795875,unknown,2,2026-04-24T18:20:16.323+02:00,null,0,0,0,0,0,0,0,null,798740462.8362647,0,0.7599998,101.5559,1,0.85
2026-04-24T18:21:03.112+02:00,1777047653.571205,53.56895416345577,9.882977505173033,38.55946,-1,-1,-1,-1,9.056828472500998,2.789105338997707,-9999,3277.695833041667,0.1665802001953125,-0.5258026123046875,-0.8619232177734375,3277.687022041667,0.07019242748144507,0.1806139185677176,0.5495688207146004,-0.02730695530772209,-0.08880347013473511,0.0941358357667923,0.01069691777229309,-0.005146205425262451,-0.01854318380355835,XArbitraryZVertical,0.2670215971672515,0.09622966879895836,0.05809046088499368,0.9571127265356623,0.1531824618577957,-0.5223196148872375,-0.8388786315917969,0,0,0,-1,-1,3230.927795875,unknown,2,2026-04-24T18:20:16.323+02:00,null,0,0,0,0,0,0,0,null,798740462.8362647,0,0.7599998,101.5559,1,0.85
2026-04-24T18:21:03.122+02:00,1777047653.571205,53.56895416345577,9.882977505173033,38.55946,-1,-1,-1,-1,9.056828472500998,2.789105338997707,-9999,3277.705908041667,0.167877197265625,-0.5341339111328125,-0.85980224609375,3277.697097041667,0.07134968902314628,0.1790964075738576,0.5495909919036466,-0.001681486843153834,-0.0931345671415329,0.09699580818414688,0.01467299461364746,-0.003464102745056152,-0.02282446622848511,XArbitraryZVertical,0.2670209147493475,0.09565805058837777,0.05844253162938685,0.9571488041949028,0.1519072204828262,-0.5223385095596313,-0.8390987515449524,0,0,0,-1,-1,3230.927795875,unknown,2,2026-04-24T18:20:16.323+02:00,null,0,0,0,0,0,0,0,null,798740462.8362647,0,0.7599998,101.5559,1,0.85
2026-04-24T18:21:03.132+02:00,1777047653.571205,53.56895416345577,9.882977505173033,38.55946,-1,-1,-1,-1,9.056828472500998,2.789105338997707,-9999,3277.715983041667,0.1680450439453125,-0.54571533203125,-0.855804443359375,3277.707172041667,0.07249366942041724,0.1774987316905722,0.5498543529361637,0.02014146745204926,-0.1087268367409706,0.104589082300663,0.01733508706092834,-0.01157087087631226,-0.02059727907180786,XArbitraryZVertical,0.2671394517810541,0.0950475613083466,0.05878665067192404,0.9571555169341638,0.1505421251058578,-0.5225630402565002,-0.8392049670219421,0,0,0,-1,-1,3230.927795875,unknown,2,2026-04-24T18:20:16.323+02:00,null,0,0,0,0,0,0,0,null,798740462.8362647,0,0.7599998,101.5559,1,0.85
2026-04-24T18:21:03.142+02:00,1777047653.571205,53.56895416345577,9.882977505173033,38.55946,-1,-1,-1,-1,9.056828472500998,2.789105338997707,-9999,3277.726058041667,0.1758270263671875,-0.555450439453125,-0.8638763427734375,3277.717247041667,0.07372913522573425,0.1756940923002649,0.550344405549534,0.03989946097135544,-0.1206908151507378,0.1202114522457123,0.01906241476535797,-0.02273452281951904,-0.01658141613006592,XArbitraryZVertical,0.2673691054956224,0.09435171564468955,0.05915511604574045,0.957137582850373,0.1489826440811157,-0.522980809211731,-0.8392230272293091,0,0,0,-1,-1,3230.927795875,unknown,2,2026-04-24T18:20:16.323+02:00,null,0,0,0,0,0,0,0,null,798740462.8362647,0,0.7599998,101.5559,1,0.85
2026-04-24T18:21:03.152+02:00,1777047653.571205,53.56895416345577,9.882977505173033,38.55946,-1,-1,-1,-1,9.056828472500998,2.789105338997707,-9999,3277.736133041667,0.1793365478515625,-0.5623931884765625,-0.87103271484375,3277.727322041667,0.07515379017349573,0.173626305971416,0.5510291896491,0.05228470265865326,-0.143204391002655,0.1417845189571381,0.0286419540643692,-0.03188610076904297,-0.02469998598098755,XArbitraryZVertical,0.267691885097843,0.09355683209339044,0.05958557104409377,0.957098655882184,0.1471850872039795,-0.523564338684082,-0.83917635679245,0,0,0,-1,-1,3230.927795875,unknown,2,2026-04-24T18:20:16.323+02:00,null,0,0,0,0,0,0,0,null,798740462.8362647,0,0.7599998,101.5559,1,0.85
2026-04-24T18:21:03.163+02:00,1777047653.571205,53.56895416345577,9.882977505173033,38.55946,-1,-1,-1,-1,9.056828472500998,2.789105338997707,-9999,3277.746208041667,0.1815032958984375,-0.5735015869140625,-0.86651611328125,3277.737397041667,0.07691718889004084,0.1711546712265702,0.551826660502084,0.05139999836683273,-0.1641317754983902,0.1779236048460007,0.03429721295833588,-0.03814959526062012,-0.0319068431854248,XArbitraryZVertical,0.2680661298070748,0.09261544863324418,0.06012727687712947,0.9570515302273815,0.1450393348932266,-0.5242436528205872,-0.8391258716583252,0,0,0,-1,-1,3230.927795875,unknown,2,2026-04-24T18:20:16.323+02:00,null,0,0,0,0,0,0,0,null,798740462.8362647,0,0.7599998,101.5559,1,0.85
2026-04-24T18:21:03.173+02:00,1777047653.571205,53.56895416345577,9.882977505173033,38.55946,-1,-1,-1,-1,9.056828472500998,2.789105338997707,-9999,3277.756283041667,0.1843109130859375,-0.5846710205078125,-0.856658935546875,3277.747472041667,0.07907706477106229,0.1683413312404652,0.5526103172710954,0.03698894381523132,-0.1739396601915359,0.2101690918207169,0.0388941615819931,-0.04859077930450439,-0.02739077806472778,XArbitraryZVertical,0.2684274216601813,0.09156450347309783,0.06081125340317754,0.9570082250395276,0.1426091492176056,-0.5249108076095581,-0.8391253352165222,0,0,0,-1,-1,3230.927795875,unknown,2,2026-04-24T18:20:16.323+02:00,null,0,0,0,0,0,0,0,null,798740462.8362647,0,0.7599998,101.5559,1,0.85
2026-04-24T18:21:03.182+02:00,1777047653.571205,53.56895416345577,9.882977505173033,38.55946,-1,-1,-1,-1,9.056828472500998,2.789105338997707,-9999,3277.766358041667,0.1872100830078125,-0.5886688232421875,-0.8503265380859375,3277.757547041667,0.08167832052055336,0.1651717828192896,0.5532840739225804,0.02274981886148453,-0.1833414137363434,0.2437563538551331,0.04442031681537628,-0.05918687582015991,-0.01743489503860474,XArbitraryZVertical,0.2687291463994781,0.09040253369159598,0.06165360415509131,0.9569800701962102,0.1398906111717224,-0.5254841446876526,-0.8392240405082703,0,0,0,-1,-1,3230.927795875,unknown,2,2026-04-24T18:20:16.323+02:00,null,0,0,0,0,0,0,0,null,798740462.8362647,0,0.7599998,101.5559,1,0.85
2026-04-24T18:21:03.192+02:00,1777047653.571205,53.56895416345577,9.882977505173033,38.55946,-1,-1,-1,-1,9.056828472500998,2.789105338997707,-9999,3277.776433041667,0.18212890625,-0.585113525390625,-0.852447509765625,3277.767622041667,0.08464483930984126,0.1618209988288642,0.5539434342924608,0.02853963896632195,-0.1678753793239594,0.2724851369857788,0.05018816888332367,-0.06262373924255371,-0.01098054647445679,XArbitraryZVertical,0.2690161701009414,0.08920383784462675,0.06264470313129623,0.956947559166621,0.1370219141244888,-0.526045024394989,-0.8393459320068359,0,0,0,-1,-1,3230.927795875,unknown,2,2026-04-24T18:20:16.323+02:00,null,0,0,0,0,0,0,0,null,798740462.8362647,0,0.7599998,101.5559,1,0.85
2026-04-24T18:21:03.203+02:00,1777047653.571205,53.56895416345577,9.882977505173033,38.55946,-1,-1,-1,-1,9.056828472500998,2.789105338997707,-9999,3277.786508041667,0.18115234375,-0.571014404296875,-0.8568878173828125,3277.777697041667,0.08791922798123922,0.158423365193442,0.5548971302007883,0.0675959587097168,-0.1711763739585876,0.3049567937850952,0.0480387955904007,-0.05825763940811157,-0.01313662528991699,XArbitraryZVertical,0.2694356825549583,0.08802829673377487,0.06378501645493417,0.9568630456198096,0.1340901255607605,-0.5268558859825134,-0.839310884475708,0,0,0,-1,-1,3230.927795875,unknown,2,2026-04-24T18:20:16.323+02:00,null,0,0,0,0,0,0,0,null,798740462.8362647,0,0.7599998,101.5559,1,0.85
2026-04-24T18:21:03.213+02:00,1777047653.571205,53.56895416345577,9.882977505173033,38.55946,-1,-1,-1,-1,9.056828472500998,2.789105338997707,-9999,3277.796583041667,0.1985931396484375,-0.5584564208984375,-0.8553314208984375,3277.787772041667,0.09164378645649222,0.1547015934251234,0.5561439666218877,0.08104332536458969,-0.1818425804376602,0.3529012203216553,0.05028818547725677,-0.04309916496276855,-0.01773339509963989,XArbitraryZVertical,0.2699905425210632,0.08676355355926649,0.06510412888616431,0.9567332932500248,0.1308641582727432,-0.5279152393341064,-0.8391543626785278,0,0,0,-1,-1,3230.927795875,unknown,2,2026-04-24T18:20:16.323+02:00,null,0,0,0,0,0,0,0,null,798740462.8362647,0,0.7599998,101.5559,1,0.85
2026-04-24T18:21:03.223+02:00,1777047653.571205,53.56895416345577,9.882977505173033,38.55946,-1,-1,-1,-1,9.056828472500998,2.789105338997707,-9999,3277.806658041667,0.2178497314453125,-0.5808258056640625,-0.8650970458984375,3277.797847041667,0.09589271269134542,0.1505894100235889,0.5577066832606462,0.1077782660722733,-0.1893444508314133,0.4010040163993835,0.07130475342273712,-0.02921462059020996,-0.01646262407302856,XArbitraryZVertical,0.2706920982901388,0.08538967351419746,0.06662781217432961,0.9565538253165151,0.1272883862257004,-0.5292418003082275,-0.8388687968254089,0,0,0,-1,-1,3230.927795875,unknown,2,2026-04-24T18:20:16.323+02:00,null,0,0,0,0,0,0,0,null,798740462.8362647,0,0.7599998,101.5559,1,0.85
2026-04-24T18:21:03.233+02:00,1777047653.571205,53.56895416345577,9.882977505173033,38.55946,-1,-1,-1,-1,9.056828472500998,2.789105338997707,-9999,3277.816733041667,0.223724365234375,-0.5998992919921875,-0.8544769287109375,3277.807922041667,0.1006130354475102,0.1461525993564856,0.5593012075508674,0.08512099832296371,-0.2016812711954117,0.4291608929634094,0.09440755844116211,-0.05023181438446045,-0.02650773525238037,XArbitraryZVertical,0.271406155651837,0.0839288530262227,0.06832989252727635,0.9563606111692365,0.1234421879053116,-0.5305939912796021,-0.8385893106460571,0,0,0,-1,-1,3230.927795875,unknown,2,2026-04-24T18:20:16.323+02:00,null,0,0,0,0,0,0,0,null,798740462.8362647,0,0.7599998,101.5559,1,0.85
2026-04-24T18:21:03.243+02:00,1777047653.571205,53.56895416345577,9.882977505173033,38.55946,-1,-1,-1,-1,9.056828472500998,2.789105338997707,-9999,3277.826808041667,0.2285919189453125,-0.606292724609375,-0.8428955078125,3277.817997041667,0.1058207506241041,0.1413238368823118,0.5606501231750076,0.05852267891168594,-0.2103666365146637,0.4767084419727325,0.1044338792562485,-0.06816238164901733,-0.01601064205169678,XArbitraryZVertical,0.2720032670713792,0.08234750136283517,0.07020080228100123,0.9561928981348665,0.1192904934287071,-0.5317369103431702,-0.8384662270545959,0,0,0,-1,-1,3230.927795875,unknown,2,2026-04-24T18:20:16.323+02:00,null,0,0,0,0,0,0,0,null,798740462.8362647,0,0.7599998,101.5559,1,0.85
2026-04-24T18:21:03.253+02:00,1777047653.571205,53.56895416345577,9.882977505173033,38.55946,-1,-1,-1,-1,9.056828472500998,2.789105338997707,-9999,3277.836883041667,0.24163818359375,-0.6257476806640625,-0.84515380859375,3277.828072041667,0.1118647156859449,0.135876730656109,0.5620394839579783,0.1006610244512558,-0.2379761636257172,0.570530891418457,0.1139705702662468,-0.07337963581085205,-0.004524648189544678,XArbitraryZVertical,0.272616854828149,0.08058933301241275,0.0723841732959779,0.9560052166123258,0.1146213561296463,-0.5329130291938782,-0.8383708000183105,0,0,0,-1,-1,3230.927795875,unknown,2,2026-04-24T18:20:16.323+02:00,null,0,0,0,0,0,0,0,null,798740462.8362647,0,0.7599998,101.5559,1,0.85
2026-04-24T18:21:03.263+02:00,1777047653.571205,53.56895416345577,9.882977505173033,38.55946,-1,-1,-1,-1,9.056828472500998,2.789105338997707,-9999,3277.846958041667,0.233673095703125,-0.6296234130859375,-0.833221435546875,3277.838147041667,0.1184975753285766,0.1299885864204474,0.5637867260798278,0.04632854461669922,-0.2110380232334137,0.5693010687828064,0.1320761144161224,-0.09135699272155762,-0.007047176361083984,XArbitraryZVertical,0.2734062969996567,0.07871269231349327,0.07479223542372015,0.9557506797976095,0.1095620840787888,-0.5343906879425049,-0.838106632232666,0,0,0,-1,-1,3230.927795875,unknown,2,2026-04-24T18:20:16.323+02:00,null,0,0,0,0,0,0,0,null,798740462.8362647,0,0.7599998,101.5559,1,0.85
2026-04-24T18:21:03.274+02:00,1777047653.571205,53.56895416345577,9.882977505173033,38.55946,-1,-1,-1,-1,9.056828472500998,2.789105338997707,-9999,3277.857033041667,0.23779296875,-0.5847930908203125,-0.83734130859375,3277.848222041667,0.1255157965216308,0.1242228865936521,0.5646018207845436,0.01208263449370861,-0.2078265249729156,0.6369190216064453,0.1289990991353989,-0.0945439338684082,0.00507044792175293,XArbitraryZVertical,0.2737428876134694,0.07693424572085562,0.07737503152741876,0.9555935884477147,0.1046740114688873,-0.5350794792175293,-0.8382918834686279,0,0,0,-1,-1,3230.927795875,unknown,2,2026-04-24T18:20:16.323+02:00,null,0,0,0,0,0,0,0,null,798740462.8362647,0,0.7599998,101.5559,1,0.85
2026-04-24T18:21:03.284+02:00,1777047653.571205,53.56895416345577,9.882977505173033,38.55946,-1,-1,-1,-1,9.056828472500998,2.789105338997707,-9999,3277.867108041667,0.2613525390625,-0.607696533203125,-0.856842041015625,3277.858297041667,0.1335532691116925,0.1177027566124886,0.5653750855875604,-0.04641343280673027,-0.2311771214008331,0.709646999835968,0.1386355459690094,-0.04906052350997925,0.001204133033752441,XArbitraryZVertical,0.2740650714614855,0.07493746255430506,0.08033745152329431,0.9554154402610654,0.09915743768215179,-0.5357325673103333,-0.8385454416275024,0,0,0,-1,-1,3230.927795875,unknown,2,2026-04-24T18:20:16.323+02:00,null,0,0,0,0,0,0,0,null,798740462.8362647,0,0.7599998,101.5559,1,0.85
2026-04-24T18:21:03.293+02:00,1777047653.571205,53.56895416345577,9.882977505173033,38.55946,-1,-1,-1,-1,9.056828472500998,2.789105338997707,-9999,3277.877183041667,0.248504638671875,-0.605224609375,-0.8446502685546875,3277.868372041667,0.1423000737871918,0.1108482128232768,0.5655863888770398,-0.05257678776979446,-0.2070432752370834,0.7519106864929199,0.1679577678442001,-0.071785569190979,-0.01774919033050537,XArbitraryZVertical,0.2741239323845791,0.0728672397417147,0.08357994350557101,0.9552805134049529,0.09339478611946106,-0.535910964012146,-0.8390928506851196,0,0,0,-1,-1,3230.927795875,unknown,2,2026-04-24T18:20:16.323+02:00,null,0,0,0,0,0,0,0,null,798740462.8362647,0,0.7599998,101.5559,1,0.85
2026-04-24T18:21:03.304+02:00,1777047653.571205,53.56895416345577,9.882977505173033,38.55946,-1,-1,-1,-1,9.056828472500998,2.789105338997707,-9999,3277.887258041667,0.2425537109375,-0.58843994140625,-0.8446807861328125,3277.878447041667,0.1515683654960247,0.1039254429553258,0.5658467305561543,-0.05657072737812996,-0.1893135458230972,0.8007459044456482,0.1609353721141815,-0.06909382343292236,-0.005069732666015625,XArbitraryZVertical,0.2742108948924136,0.07083869190744692,0.08706146540628062,0.9550972118063864,0.08756926655769348,-0.5361307859420776,-0.8395805358886719,0,0,0,-1,-1,3230.927795875,unknown,2,2026-04-24T18:20:16.323+02:00,null,0,0,0,0,0,0,0,null,798740462.8362647,0,0.7599998,101.5559,1,0.85
2026-04-24T18:21:03.314+02:00,1777047653.571205,53.56895416345577,9.882977505173033,38.55946,-1,-1,-1,-1,9.056828472500998,2.789105338997707,-9999,3277.897333041667,0.2443389892578125,-0.5544586181640625,-0.8420257568359375,3277.888522041667,0.1614512425386572,0.09683159889937654,0.5664090051715586,0.007927943952381611,-0.1708717048168182,0.8540350198745728,0.160971611738205,-0.05183464288711548,-0.004800379276275635,XArbitraryZVertical,0.2744503974204625,0.06882424633358118,0.09081471694419438,0.9548260994895225,0.08158210664987564,-0.5366052985191345,-0.8398804068565369,0,0,0,-1,-1,3230.927795875,unknown,2,2026-04-24T18:20:16.323+02:00,null,0,0,0,0,0,0,0,null,798740462.8362647,0,0.7599998,101.5559,1,0.85
2026-04-24T18:21:03.324+02:00,1777047653.571205,53.56895416345577,9.882977505173033,38.55946,-1,-1,-1,-1,9.056828472500998,2.789105338997707,-9999,3277.907408041667,0.2439422607421875,-0.5506439208984375,-0.8518524169921875,3277.898597041667,0.1718078730591787,0.08968021490062955,0.5678726310032673,0.107858270406723,-0.1453799307346344,0.8988072872161865,0.1688356697559357,-0.01661884784698486,-0.002366542816162109,XArbitraryZVertical,0.2751310414800892,0.06688270051176005,0.09479101792935934,0.9543816531834032,0.07550334185361862,-0.5378397703170776,-0.8396592140197754,0,0,0,-1,-1,3230.927795875,unknown,2,2026-04-24T18:20:16.323+02:00,null,0,0,0,0,0,0,0,null,798740462.8362647,0,0.7599998,101.5559,1,0.85
2026-04-24T18:21:03.333+02:00,1777047653.571205,53.56895416345577,9.882977505173033,38.55946,-1,-1,-1,-1,9.056828472500998,2.789105338997707,-9999,3277.917483041667,0.242340087890625,-0.5514984130859375,-0.8453826904296875,3277.908672041667,0.1825660230254201,0.08259677531943503,0.5699005011483298,0.1448208689689636,-0.1172188594937325,0.9309461712837219,0.1744785904884338,-0.01109564304351807,-0.01276808977127075,XArbitraryZVertical,0.2760888398469394,0.06505988771724841,0.09896362798521774,0.9538073924412073,0.06946370005607605,-0.5395482778549194,-0.8390843272209167,0,0,0,-1,-1,3230.927795875,unknown,2,2026-04-24T18:20:16.323+02:00,null,0,0,0,0,0,0,0,null,798740462.8362647,0,0.7599998,101.5559,1,0.85
2026-04-24T18:21:03.343+02:00,1777047653.571205,53.56895416345577,9.882977505173033,38.55946,-1,-1,-1,-1,9.056828472500998,2.789105338997707,-9999,3277.927558041667,0.2437591552734375,-0.5769195556640625,-0.8349151611328125,3277.918747041667,0.1937942802989759,0.07555653318593462,0.5722873964006806,0.1495908498764038,-0.08148616552352905,0.9761003255844116,0.178882822394371,-0.009942054748535156,-0.00711667537689209,XArbitraryZVertical,0.277224917551694,0.063351014744157,0.1033561826538982,0.953126730370472,0.06345727294683456,-0.5415564179420471,-0.8382660150527954,0,0,0,-1,-1,3230.927795875,unknown,2,2026-04-24T18:20:16.323+02:00,null,0,0,0,0,0,0,0,null,798740462.8362647,0,0.7599998,101.5559,1,0.85
2026-04-24T18:21:03.354+02:00,1777047653.571205,53.56895416345577,9.882977505173033,38.55946,-1,-1,-1,-1,9.056828472500998,2.789105338997707,-9999,3277.937633041667,0.2464752197265625,-0.604461669921875,-0.809173583984375,3277.928822041667,0.2056667032879557,0.06851859945805323,0.5744852469640703,0.1555555909872055,-0.04160133004188538,1.030239224433899,0.1862847059965134,-0.03351682424545288,0.00258713960647583,XArbitraryZVertical,0.2782748607649647,0.06174091357583935,0.108041451601675,0.9524065245386748,0.05747445672750473,-0.5434027314186096,-0.8375023007392883,0,0,0,-1,-1,3230.927795875,unknown,2,2026-04-24T18:20:16.323+02:00,null,0,0,0,0,0,0,0,null,798740462.8362647,0,0.7599998,101.5559,1,0.85
2026-04-24T18:21:03.364+02:00,1777047653.571205,53.56895416345577,9.882977505173033,38.55946,-1,-1,-1,-1,9.056828472500998,2.789105338997707,-9999,3277.947708041667,0.2511138916015625,-0.6140289306640625,-0.7921600341796875,3277.938897041667,0.218049457421705,0.06139520656016838,0.5765352833742412,0.1111891865730286,-0.03294472396373749,1.056295037269592,0.1950365006923676,-0.05933916568756104,0.02760326862335205,XArbitraryZVertical,0.279268850577277,0.06017050852101009,0.112943926788512,0.9516470582290139,0.05143873393535614,-0.5451225638389587,-0.8367768526077271,0,0,0,-1,-1,3230.927795875,unknown,2,2026-04-24T18:20:16.323+02:00,null,0,0,0,0,0,0,0,null,798740462.8362647,0,0.7599998,101.5559,1,0.85
2026-04-24T18:21:03.374+02:00,1777047653.571205,53.56895416345577,9.882977505173033,38.55946,-1,-1,-1,-1,9.056828472500998,2.789105338997707,-9999,3277.957783041667,0.2518463134765625,-0.5908660888671875,-0.782073974609375,3277.948972041667,0.2308338737625706,0.05415568169352074,0.5781354446504545,0.1011191457509995,-0.02571903541684151,1.08647632598877,0.2057816088199615,-0.06756556034088135,0.04409521818161011,XArbitraryZVertical,0.2800698451327766,0.05859412953922138,0.1180088608541342,0.9508951257400412,0.04533229768276215,-0.5464633703231812,-0.8362551927566528,0,0,0,-1,-1,3230.927795875,unknown,2,2026-04-24T18:20:16.323+02:00,null,0,0,0,0,0,0,0,null,798740462.8362647,0,0.7599998,101.5559,1,0.85
2026-04-24T18:21:03.384+02:00,1777047653.571205,53.56895416345577,9.882977505173033,38.55946,-1,-1,-1,-1,9.056828472500998,2.789105338997707,-9999,3277.967858041667,0.24755859375,-0.564117431640625,-0.80181884765625,3277.959047041667,0.2440024176747771,0.04676584129512595,0.5796907318389514,0.09338239580392838,-0.01062477193772793,1.115357995033264,0.2127347886562347,-0.04310089349746704,0.05364340543746948,XArbitraryZVertical,0.2808754191378294,0.05701149403218193,0.1232232724843021,0.9500919219500571,0.03911154344677925,-0.5477651953697205,-0.8357173800468445,0,0,0,-1,-1,3230.927795875,unknown,2,2026-04-24T18:20:16.323+02:00,null,0,0,0,0,0,0,0,null,798740462.8362647,0,0.7599998,101.5559,1,0.85
2026-04-24T18:21:03.394+02:00,1777047653.571205,53.56895416345577,9.882977505173033,38.55946,-1,-1,-1,-1,9.056828472500998,2.789105338997707,-9999,3277.977933041667,0.2399444580078125,-0.536590576171875,-0.8274993896484375,3277.969122041667,0.2576007044067559,0.03922064212834198,0.5811246615436105,0.1166107505559921,-0.008789055049419403,1.156118512153625,0.2147845923900604,-0.01515311002731323,0.03338414430618286,XArbitraryZVertical,0.2816501993966875,0.05542261531293612,0.128608127147176,0.9492425906536676,0.03277400508522987,-0.5489643216133118,-0.8352029919624329,0,0,0,-1,-1,3230.927795875,unknown,2,2026-04-24T18:20:16.323+02:00,null,0,0,0,0,0,0,0,null,798740462.8362647,0,0.7599998,101.5559,1,0.85
2026-04-24T18:21:03.404+02:00,1777047653.571205,53.56895416345577,9.882977505173033,38.55946,-1,-1,-1,-1,9.056828472500998,2.789105338997707,-9999,3277.988008041667,0.2353057861328125,-0.5495452880859375,-0.8724365234375,3277.979197041667,0.2717876526264963,0.03131309937543334,0.5831285892856708,0.1825977563858032,-0.01481765229254961,1.205724358558655,0.2138103246688843,0.01404762268066406,0.006835460662841797,XArbitraryZVertical,0.2827343407660379,0.05379481392624082,0.1342011491656233,0.9482391587308565,0.02613415196537971,-0.5506381988525391,-0.8343348503112793,0,0,0,-1,-1,3230.927795875,unknown,2,2026-04-24T18:20:16.323+02:00,null,0,0,0,0,0,0,0,null,798740462.8362647,0,0.7599998,101.5559,1,0.85
2026-04-24T18:21:03.414+02:00,1777047653.571205,53.56895416345577,9.882977505173033,38.55946,-1,-1,-1,-1,9.056828472500998,2.789105338997707,-9999,3277.998083041667,0.224578857421875,-0.54205322265625,-0.8802642822265625,3277.989272041667,0.2865430097189693,0.0230973427420825,0.5850781886102058,0.1414352506399155,-0.0045415791682899,1.2512127161026,0.2160519659519196,0.002719283103942871,-0.03898996114730835,XArbitraryZVertical,0.2838317596260275,0.05211779443579957,0.1400028779589449,0.9471654717431955,0.01925382390618324,-0.5522645711898804,-0.8334465622901917,0,0,0,-1,-1,3230.927795875,unknown,2,2026-04-24T18:20:16.323+02:00,null,0,0,0,0,0,0,0,null,798740462.8362647,0,0.7599998,101.5559,1,0.85
