loggingTime(txt),locationTimestamp_since1970(s),locationLatitude(WGS84),locationLongitude(WGS84),locationAltitude(m),locationSpeed(m/s),locationSpeedAccuracy(m/s),locationCourse(°),locationCourseAccuracy(°),locationVerticalAccuracy(m),locationHorizontalAccuracy(m),locationFloor(Z),accelerometerTimestamp_sinceReboot(s),accelerometerAccelerationX(G),accelerometerAccelerationY(G),accelerometerAccelerationZ(G),motionTimestamp_sinceReboot(s),motionYaw(rad),motionRoll(rad),motionPitch(rad),motionRotationRateX(rad/s),motionRotationRateY(rad/s),motionRotationRateZ(rad/s),motionUserAccelerationX(G),motionUserAccelerationY(G),motionUserAccelerationZ(G),motionAttitudeReferenceFrame(txt),motionQuaternionX(R),motionQuaternionY(R),motionQuaternionZ(R),motionQuaternionW(R),motionGravityX(G),motionGravityY(G),motionGravityZ(G),motionMagneticFieldX(µT),motionMagneticFieldY(µT),motionMagneticFieldZ(µT),motionHeading(°),motionMagneticFieldCalibrationAccuracy(Z),pedometerStartDate(txt),pedometerNumberofSteps(N),pedometerAverageActivePace(s/m),pedometerCurrentPace(s/m),pedometerCurrentCadence(steps/s),pedometerDistance(m),pedometerFloorAscended(N),pedometerFloorDescended(N),pedometerEndDate(txt),altimeterTimestamp_sinceReboot(s),altimeterReset(bool),altimeterRelativeAltitude(m),altimeterPressure(kPa),label
2026-05-26T15:47:11.633+02:00,1779803230.999495,53.23610689089494,10.40155555272634,22.91459,0,0.188298,234.5376105425829,180,16.78839530571731,2.746852437839412,-9999,3261.943431375,-0.2723541259765625,-0.293487548828125,-0.9375,3261.933355375,0.005292026436458196,0.01772633598294629,-0.008315640779225366,-0.02009388618171215,0.1936473846435547,-0.02555124834179878,-0.01240229606628418,0.006462633609771729,-0.007987380027770996,XArbitraryZVertical,-0.004181081898986454,0.008851942787320665,0.002609032486257623,0.9999487162144679,-0.2796814441680908,-0.2532887756824493,-0.9260794520378113,0,0,0,-1,-1,2026-05-26T14:10:01.685+02:00,1475,1.083488,0,0,1181.784,0,0,2026-05-26T15:38:17.271+02:00,801496031.2906098,0,0.8600006,102.2521,0
2026-05-26T15:47:11.643+02:00,1779803230.999495,53.23610689089494,10.40155555272634,22.91459,0,0.188298,234.5376105425829,180,16.78839530571731,2.746852437839412,-9999,3261.953506375,-0.2717742919921875,-0.3024139404296875,-0.940948486328125,3261.943431375,0.005059575004999211,0.01966398507535707,-0.009076407745758354,-0.1340476274490356,0.193439394235611,-0.01938736066222191,0.002721250057220459,-0.03013432025909424,-0.007728338241577148,XArbitraryZVertical,-0.00456282706747314,0.009820222344265689,0.002485018154241956,0.9999381800013925,-0.2778219878673553,-0.2526567876338959,-0.9268114566802979,0,0,0,-1,-1,2026-05-26T14:10:01.685+02:00,1475,1.083488,0,0,1181.784,0,0,2026-05-26T15:38:17.271+02:00,801496031.2906098,0,0.8600006,102.2521,0
2026-05-26T15:47:11.653+02:00,1779803230.999495,53.23610689089494,10.40155555272634,22.91459,0,0.188298,234.5376105425829,180,16.78839530571731,2.746852437839412,-9999,3261.963582375,-0.2721405029296875,-0.2865753173828125,-0.949310302734375,3261.953506375,0.004892518172642585,0.02151715377220733,-0.01082498100203138,-0.1982851475477219,0.1753432005643845,-0.02304741181433201,0.004673361778259277,-0.05215799808502197,-0.01216155290603638,XArbitraryZVertical,-0.005438452066438107,0.01074494020307864,0.002387850162171323,0.9999246175706086,-0.2760509252548218,-0.2510951459407806,-0.9277645945549011,0,0,0,-1,-1,2026-05-26T14:10:01.685+02:00,1475,1.083488,0,0,1181.784,0,0,2026-05-26T15:38:17.271+02:00,801496031.2906098,0,0.8600006,102.2521,0
2026-05-26T15:47:11.663+02:00,1779803230.999495,53.23610689089494,10.40155555272634,22.91459,0,0.188298,234.5376105425829,180,16.78839530571731,2.746852437839412,-9999,3261.973657375,-0.2691802978515625,-0.243316650390625,-0.949493408203125,3261.963582375,0.004783328213823991,0.02330593113910493,-0.01296125616772182,-0.2225550711154938,0.1798511445522308,-0.00167687505017966,0.002514660358428955,-0.04513813555240631,-0.01603341102600098,XArbitraryZVertical,-0.006507992683623297,0.01163692508115308,0.002315933063360807,0.9999084648683522,-0.2743499875068665,-0.24915811419487,-0.928790807723999,0,0,0,-1,-1,2026-05-26T14:10:01.685+02:00,1475,1.083488,0,0,1181.784,0,0,2026-05-26T15:38:17.271+02:00,801496031.2906098,0,0.8600006,102.2521,0
2026-05-26T15:47:11.674+02:00,1779803230.999495,53.23610689089494,10.40155555272634,22.91459,0,0.188298,234.5376105425829,180,16.78839530571731,2.746852437839412,-9999,3261.983733375,-0.2609710693359375,-0.1960296630859375,-0.9384002685546875,3261.973657375,0.004986054401679285,0.02516183016478369,-0.01489416115121683,-0.1487590819597244,0.18869948387146,0.0219865757972002,0.001624733209609985,-0.01682969927787781,-0.0230259895324707,XArbitraryZVertical,-0.007477762741597312,0.01256163222683142,0.002399070931209154,0.9998901737441663,-0.2726665735244751,-0.2473151683807373,-0.929778516292572,0,0,0,-1,-1,2026-05-26T14:10:01.685+02:00,1475,1.083488,0,0,1181.784,0,0,2026-05-26T15:38:17.271+02:00,801496031.2906098,0,0.8600006,102.2521,0
2026-05-26T15:47:11.683+02:00,1779803230.999495,53.23610689089494,10.40155555272634,22.91459,0,0.188298,234.5376105425829,180,16.78839530571731,2.746852437839412,-9999,3261.993809375,-0.2580718994140625,-0.19281005859375,-0.927764892578125,3261.983733375,0.005225168696989785,0.02707715144356746,-0.01606285072855202,-0.08734019100666046,0.1925666630268097,0.01902966760098934,0.006596595048904419,0.03742574155330658,-0.01106244325637817,XArbitraryZVertical,-0.008065944704480266,0.01351669988435296,0.002503528695122934,0.9998728901121995,-0.2709398567676544,-0.2461659759283066,-0.9305879473686218,0,0,0,-1,-1,2026-05-26T14:10:01.685+02:00,1475,1.083488,0,0,1181.784,0,0,2026-05-26T15:38:17.271+02:00,801496031.2906098,0,0.8600006,102.2521,0
2026-05-26T15:47:11.693+02:00,1779803230.999495,53.23610689089494,10.40155555272634,22.91459,0,0.188298,234.5376105425829,180,16.78839530571731,2.746852437839412,-9999,3262.003884375,-0.254241943359375,-0.2170562744140625,-0.9194793701171875,3261.993809375,0.005448676038901363,0.02895581961658974,-0.01646382041884942,-0.0009210436837747693,0.1835388243198395,0.0178771186619997,0.01085421442985535,0.05569678544998169,-0.002094089984893799,XArbitraryZVertical,-0.008270364760485378,0.01445443733974366,0.002604782168112958,0.999857833107157,-0.2692465782165527,-0.2457297295331955,-0.9311944842338562,0,0,0,-1,-1,2026-05-26T14:10:01.685+02:00,1475,1.083488,0,0,1181.784,0,0,2026-05-26T15:38:17.271+02:00,801496031.2906098,0,0.8600006,102.2521,0
2026-05-26T15:47:11.703+02:00,1779803230.999495,53.23610689089494,10.40155555272634,22.91459,0,0.188298,234.5376105425829,180,16.78839530571731,2.746852437839412,-9999,3262.013960375,-0.25384521484375,-0.2250823974609375,-0.9101715087890625,3262.003884375,0.005529352688354586,0.03079559977163527,-0.01644132311354992,0.003224699292331934,0.1848443001508713,-0.002636678284034133,0.01123699545860291,0.03941255807876587,0.0101894736289978,XArbitraryZVertical,-0.008262130455612138,0.01537388902744635,0.002637678674607697,0.9998441226697252,-0.2675541639328003,-0.245726615190506,-0.9316830039024353,0,0,0,-1,-1,2026-05-26T14:10:01.685+02:00,1475,1.083488,0,0,1181.784,0,0,2026-05-26T15:38:17.271+02:00,801496031.2906098,0,0.8600006,102.2521,0
2026-05-26T15:47:11.713+02:00,1779803230.999495,53.23610689089494,10.40155555272634,22.91459,0,0.188298,234.5376105425829,180,16.78839530571731,2.746852437839412,-9999,3262.024035375,-0.2520751953125,-0.23248291015625,-0.9084014892578125,3262.013960375,0.005488800631638874,0.03263089600364501,-0.01629416367514635,0.02078222669661045,0.1776644289493561,0.00109760626219213,0.01285898685455322,0.02067005634307861,0.01721912622451782,XArbitraryZVertical,-0.008190649330821117,0.01629176572377862,0.002611025124767752,0.9998303203038837,-0.2658344209194183,-0.2458744943141937,-0.9321361184120178,0,0,0,-1,-1,2026-05-26T14:10:01.685+02:00,1475,1.083488,0,0,1181.784,0,0,2026-05-26T15:38:17.271+02:00,801496031.2906098,0,0.8600006,102.2521,0
2026-05-26T15:47:11.723+02:00,1779803230.999495,53.23610689089494,10.40155555272634,22.91459,0,0.188298,234.5376105425829,180,16.78839530571731,2.746852437839412,-9999,3262.034111375,-0.2499542236328125,-0.2540130615234375,-0.91802978515625,3262.024035375,0.005438597418401776,0.03432338715700189,-0.01599761432620603,0.03814896568655968,0.1678666472434998,-0.01304803974926472,0.01069051027297974,0.01917330920696259,0.02591067552566528,XArbitraryZVertical,-0.008044178462749697,0.01713849129267258,0.00258154360453188,0.9998174190972082,-0.2642458081245422,-0.2461630403995514,-0.9325116276741028,0,0,0,-1,-1,2026-05-26T14:10:01.685+02:00,1475,1.083488,0,0,1181.784,0,0,2026-05-26T15:38:17.271+02:00,801496031.2906098,0,0.8600006,102.2521,0
2026-05-26T15:47:11.733+02:00,1779803230.999495,53.23610689089494,10.40155555272634,22.91459,0,0.188298,234.5376105425829,180,16.78839530571731,2.746852437839412,-9999,3262.044186375,-0.2618865966796875,-0.259033203125,-0.9221649169921875,3262.034111375,0.005292283985149113,0.03601760560275928,-0.01599931432362725,-0.04196701571345329,0.1701367199420929,-0.01186473108828068,0.01377174258232117,-0.000819772481918335,0.01886469125747681,XArbitraryZVertical,-0.008045897132770912,0.01798602728966442,0.002501570954750373,0.9998026407054762,-0.2626273334026337,-0.246204748749733,-0.9329577088356018,0,0,0,-1,-1,2026-05-26T14:10:01.685+02:00,1475,1.083488,0,0,1181.784,0,0,2026-05-26T15:38:17.271+02:00,801496031.2906098,0,0.8600006,102.2521,0
2026-05-26T15:47:11.744+02:00,1779803230.999495,53.23610689089494,10.40155555272634,22.91459,0,0.188298,234.5376105425829,180,16.78839530571731,2.746852437839412,-9999,3262.054262375,-0.2590789794921875,-0.2770843505859375,-0.93182373046875,3262.044186375,0.005221379607556522,0.0376425984670103,-0.01663919583108915,-0.07782088220119476,0.1491584777832031,-0.007600743789225817,0.002373725175857544,-0.01245199143886566,0.01244336366653442,XArbitraryZVertical,-0.008367132764093668,0.01879775850938493,0.002453560247459098,0.9997851942618411,-0.261086493730545,-0.245635136961937,-0.9335401654243469,0,0,0,-1,-1,2026-05-26T14:10:01.685+02:00,1475,1.083488,0,0,1181.784,0,0,2026-05-26T15:38:17.271+02:00,801496031.2906098,0,0.8600006,102.2521,0
2026-05-26T15:47:11.754+02:00,1779803230.999495,53.23610689089494,10.40155555272634,22.91459,0,0.188298,234.5376105425829,180,16.78839530571731,2.746852437839412,-9999,3262.064338375,-0.253936767578125,-0.26904296875,-0.93548583984375,3262.054262375,0.005237675904290722,0.03903487738972213,-0.01764155294056076,-0.1258655935525894,0.1296020746231079,0.0001892020227387547,-0.001739174127578735,-0.02436845004558563,0.00832134485244751,XArbitraryZVertical,-0.008870059634077644,0.01949227807773594,0.002446089116887379,0.9997676624935153,-0.2597812116146088,-0.244705006480217,-0.934148371219635,0,0,0,-1,-1,2026-05-26T14:10:01.685+02:00,1475,1.083488,0,0,1181.784,0,0,2026-05-26T15:38:17.271+02:00,801496031.2906098,0,0.8600006,102.2521,0
2026-05-26T15:47:11.764+02:00,1779803230.999495,53.23610689089494,10.40155555272634,22.91459,0,0.188298,234.5376105425829,180,16.78839530571731,2.746852437839412,-9999,3262.074413375,-0.260772705078125,-0.2350006103515625,-0.92633056640625,3262.064338375,0.005174889392531401,0.04031883892665487,-0.01897171550491735,-0.1234783306717873,0.1274736821651459,-0.02396353892982006,0.002494335174560547,-0.03567957878112793,-0.00306093692779541,XArbitraryZVertical,-0.009535912390718554,0.02013254220862502,0.002395586877883671,0.9997489061933723,-0.258552074432373,-0.2434952110052109,-0.9348052740097046,0,0,0,-1,-1,2026-05-26T14:10:01.685+02:00,1475,1.083488,0,0,1181.784,0,0,2026-05-26T15:38:17.271+02:00,801496031.2906098,0,0.8600006,102.2521,0
2026-05-26T15:47:11.774+02:00,1779803230.999495,53.23610689089494,10.40155555272634,22.91459,0,0.188298,234.5376105425829,180,16.78839530571731,2.746852437839412,-9999,3262.084489375,-0.264007568359375,-0.2232818603515625,-0.9203338623046875,3262.074413375,0.004949496997052645,0.04159094806411711,-0.02003222862823033,-0.0811632052063942,0.1292641311883926,-0.02990684844553471,0.0007928907871246338,-0.002260252833366394,0.006892502307891846,XArbitraryZVertical,-0.01006520833310603,0.02076808808456099,0.002265816168165671,0.9997310308518111,-0.257293164730072,-0.2425822615623474,-0.9353898167610168,0,0,0,-1,-1,2026-05-26T14:10:01.685+02:00,1475,1.083488,0,0,1181.784,0,0,2026-05-26T15:38:17.271+02:00,801496031.2906098,0,0.8600006,102.2521,0
2026-05-26T15:47:11.784+02:00,1779803230.999495,53.23610689089494,10.40155555272634,22.91459,0,0.188298,234.5376105425829,180,16.78839530571731,2.746852437839412,-9999,3262.094564375,-0.24957275390625,-0.217529296875,-0.9130401611328125,3262.084489375,0.004752270717777345,0.04293012025859957,-0.02044433853200267,-0.00722160330042243,0.1336785852909088,-0.009418084286153316,-0.00933527946472168,0.01652140915393829,0.01240092515945435,XArbitraryZVertical,-0.01027060486606556,0.02143794667073341,0.002156063442002214,0.9997150988528266,-0.2559845447540283,-0.2422598749399185,-0.9358322620391846,0,0,0,-1,-1,2026-05-26T14:10:01.685+02:00,1475,1.083488,0,0,1181.784,0,0,2026-05-26T15:38:17.271+02:00,801496031.2906098,0,0.8600006,102.2521,0
2026-05-26T15:47:11.794+02:00,1779803230.999495,53.23610689089494,10.40155555272634,22.91459,0,0.188298,234.5376105425829,180,16.78839530571731,2.746852437839412,-9999,3262.104640375,-0.23944091796875,-0.21551513671875,-0.91265869140625,3262.094564375,0.004710212407530661,0.04418342850994959,-0.02028382611675836,0.03053365834057331,0.1197124347090721,-0.0005032198969274759,-0.001484483480453491,0.02284663915634155,0.02066224813461304,XArbitraryZVertical,-0.01019125828018803,0.02206484214364157,0.002130378790055713,0.9997022752558914,-0.2548021376132965,-0.2424205988645554,-0.9361132979393005,0,0,0,-1,-1,2026-05-26T14:10:01.685+02:00,1475,1.083488,0,0,1181.784,0,0,2026-05-26T15:38:17.271+02:00,801496031.2906098,0,0.8600006,102.2521,0
2026-05-26T15:47:11.804+02:00,1779803230.999495,53.23610689089494,10.40155555272634,22.91459,0,0.188298,234.5376105425829,180,16.78839530571731,2.746852437839412,-9999,3262.114715375,-0.246185302734375,-0.229522705078125,-0.9192047119140625,3262.104640375,0.004724992736054952,0.0453537593203275,-0.0199863391357914,0.03029024414718151,0.1130798310041428,0.006119795143604279,0.01257887482643127,0.02777104079723358,0.02447366714477539,XArbitraryZVertical,-0.01004397373637596,0.02265014043079238,0.002135178896176561,0.9996906249514433,-0.2537135183811188,-0.2426910549402237,-0.9363388419151306,0,0,0,-1,-1,2026-05-26T14:10:01.685+02:00,1475,1.083488,0,0,1181.784,0,0,2026-05-26T15:38:17.271+02:00,801496031.2906098,0,0.8600006,102.2521,0
2026-05-26T15:47:11.814+02:00,1779803230.999495,53.23610689089494,10.40155555272634,22.91459,0,0.188298,234.5376105425829,180,16.78839530571731,2.746852437839412,-9999,3262.124791375,-0.24859619140625,-0.2453155517578125,-0.919769287109375,3262.114715375,0.004886206627884204,0.04643605314895596,-0.01989819164911867,-0.01890228129923344,0.1050653159618378,0.0273961890488863,0.009777426719665527,0.01967188715934753,0.01960033178329468,XArbitraryZVertical,-0.01000293662055816,0.02319042268368149,0.002211348410841695,0.9996785727688242,-0.252743124961853,-0.2427248507738113,-0.9365925192832947,0,0,0,-1,-1,2026-05-26T14:10:01.685+02:00,1475,1.083488,0,0,1181.784,0,0,2026-05-26T15:38:17.271+02:00,801496031.2906098,0,0.8600006,102.2521,0
2026-05-26T15:47:11.824+02:00,1779803230.999495,53.23610689089494,10.40155555272634,22.91459,0,0.188298,234.5376105425829,180,16.78839530571731,2.746852437839412,-9999,3262.134867375,-0.2473602294921875,-0.2546844482421875,-0.9235076904296875,3262.124791375,0.005172813112361722,0.04738328781361441,-0.02023375857640895,-0.04974594712257385,0.08411556482315063,0.02385098859667778,0.00279650092124939,0.002889096736907959,0.01616883277893066,XArbitraryZVertical,-0.01017510147504068,0.02366197846309409,0.002345887399507509,0.9996654429055221,-0.2519267499446869,-0.2423299849033356,-0.9369146823883057,0,0,0,-1,-1,2026-05-26T14:10:01.685+02:00,1475,1.083488,0,0,1181.784,0,0,2026-05-26T15:38:17.271+02:00,801496031.2906098,0,0.8600006,102.2521,0
2026-05-26T15:47:11.834+02:00,1779803230.999495,53.23610689089494,10.40155555272634,22.91459,0,0.188298,234.5376105425829,180,16.78839530571731,2.746852437839412,-9999,3262.144942375,-0.2535858154296875,-0.24627685546875,-0.931884765625,3262.134867375,0.005394264783015502,0.04815980252345806,-0.02079495235622112,-0.06011065095663071,0.07112465798854828,0.02064207941293716,0.003478199243545532,-0.01083278656005859,0.01592147350311279,XArbitraryZVertical,-0.01045917406554257,0.02404815154472145,0.002445860960530363,0.9996530510264409,-0.2512503862380981,-0.2417458891868591,-0.937247097492218,0,0,0,-1,-1,2026-05-26T14:10:01.685+02:00,1475,1.083488,0,0,1181.784,0,0,2026-05-26T15:38:17.271+02:00,801496031.2906098,0,0.8600006,102.2521,0
2026-05-26T15:47:11.844+02:00,1779803230.999495,53.23610689089494,10.40155555272634,22.91459,0,0.188298,234.5376105425829,180,16.78839530571731,2.746852437839412,-9999,3262.155018375,-0.261260986328125,-0.2317962646484375,-0.9271697998046875,3262.144942375,0.005656063229965533,0.04890973754459078,-0.02150715532066992,-0.08461812138557434,0.07638413459062576,0.01900370232760906,-3.352761268615723e-05,-0.01027151942253113,0.006959915161132812,XArbitraryZVertical,-0.01081926097834606,0.0244205196093604,0.002564073918071329,0.9996398731366186,-0.2506073117256165,-0.2410101890563965,-0.9376086592674255,0,0,0,-1,-1,2026-05-26T14:10:01.685+02:00,1475,1.083488,0,0,1181.784,0,0,2026-05-26T15:38:17.271+02:00,801496031.2906098,0,0.8600006,102.2521,0
2026-05-26T15:47:11.871+02:00,1779803230.999495,53.23610689089494,10.40155555272634,22.91459,0,0.188298,234.5376105425829,180,16.78839530571731,2.746852437839412,-9999,3262.165093375,-0.2641754150390625,-0.2397308349609375,-0.927978515625,3262.155018375,0.005913053676300699,0.04971781733022043,-0.02232862667701621,-0.07609233260154724,0.08508734405040741,0.02581886388361454,-0.008775472640991211,0.004930064082145691,0.007788419723510742,XArbitraryZVertical,-0.01123406786796813,0.02482169578407753,0.002677927931058255,0.9996251146030585,-0.2499067783355713,-0.2401747852563858,-0.9380099773406982,0,0,0,-1,-1,2026-05-26T14:10:01.685+02:00,1475,1.083488,0,0,1181.784,0,0,2026-05-26T15:38:17.271+02:00,801496031.2906098,0,0.8600006,102.2521,0
2026-05-26T15:47:11.873+02:00,1779803230.999495,53.23610689089494,10.40155555272634,22.91459,0,0.188298,234.5376105425829,180,16.78839530571731,2.746852437839412,-9999,3262.175169375,-0.2581634521484375,-0.2433624267578125,-0.930572509765625,3262.165093375,0.006207263966785559,0.05055736629698254,-0.02292418214347972,-0.03892818838357925,0.08125185966491699,0.02348433807492256,-0.01434589922428131,0.005390942096710205,0.01214027404785156,XArbitraryZVertical,-0.01153656632519696,0.02523864970854859,0.002812723884816954,0.9996108203370097,-0.2491886466741562,-0.2395370304584503,-0.9383640289306641,0,0,0,-1,-1,2026-05-26T14:10:01.685+02:00,1475,1.083488,0,0,1181.784,0,0,2026-05-26T15:38:17.271+02:00,801496031.2906098,0,0.8600006,102.2521,0
2026-05-26T15:47:11.875+02:00,1779803230.999495,53.23610689089494,10.40155555272634,22.91459,0,0.188298,234.5376105425829,180,16.78839530571731,2.746852437839412,-9999,3262.185245375,-0.2444000244140625,-0.2322998046875,-0.9239654541015625,3262.175169375,0.006483106611757326,0.05137319282532358,-0.02330576948030628,-0.03907689824700356,0.07726483792066574,0.02466957829892635,-0.01429659128189087,-0.005511090159416199,0.007477104663848877,XArbitraryZVertical,-0.01173196546379466,0.0256441333279076,0.002940976627345374,0.9995979537341257,-0.2484902888536453,-0.2391025424003601,-0.9386599659919739,0,0,0,-1,-1,2026-05-26T14:10:01.685+02:00,1475,1.083488,0,0,1181.784,0,0,2026-05-26T15:38:17.271+02:00,801496031.2906098,0,0.8600006,102.2521,0
2026-05-26T15:47:11.885+02:00,1779803230.999495,53.23610689089494,10.40155555272634,22.91459,0,0.188298,234.5376105425829,180,16.78839530571731,2.746852437839412,-9999,3262.195320375,-0.2386627197265625,-0.235504150390625,-0.923858642578125,3262.185245375,0.00671536907984967,0.05212875331048516,-0.02359341448785113,-0.02581728436052799,0.07408209890127182,0.01861115358769894,-0.00176537036895752,0.002256497740745544,0.01229715347290039,XArbitraryZVertical,-0.01187986089541404,0.02601987163005854,0.003048874216130338,0.999586127875809,-0.2478379160165787,-0.2387677133083344,-0.9389176368713379,0,0,0,-1,-1,2026-05-26T14:10:01.685+02:00,1475,1.083488,0,0,1181.784,0,0,2026-05-26T15:38:17.271+02:00,801496031.2906098,0,0.8600006,102.2521,0
2026-05-26T15:47:11.895+02:00,1779803230.999495,53.23610689089494,10.40155555272634,22.91459,0,0.188298,234.5376105425829,180,16.78839530571731,2.746852437839412,-9999,3262.205396375,-0.23736572265625,-0.242431640625,-0.9270782470703125,3262.195320375,0.006906387570725325,0.05280261189831874,-0.02387139832036733,-0.03317128494381905,0.06394185125827789,0.0149254035204649,0.007276445627212524,0.006367877125740051,0.01651406288146973,XArbitraryZVertical,-0.01202233755466087,0.02635500209642253,0.003136665705853471,0.9995753644984633,-0.2472514063119888,-0.2384540289640427,-0.93915194272995,0,0,0,-1,-1,2026-05-26T14:10:01.685+02:00,1475,1.083488,0,0,1181.784,0,0,2026-05-26T15:38:17.271+02:00,801496031.2906098,0,0.8600006,102.2521,0
2026-05-26T15:47:11.905+02:00,1779803230.999495,53.23610689089494,10.40155555272634,22.91459,0,0.188298,234.5376105425829,180,16.78839530571731,2.746852437839412,-9999,3262.215471375,-0.2376861572265625,-0.2435150146484375,-0.9255218505859375,3262.205396375,0.007035238503884163,0.05340995008501027,-0.02441256233740845,-0.08133508265018463,0.05516726151108742,0.006657887250185013,0.009448736906051636,-0.002822548151016235,0.01329934597015381,XArbitraryZVertical,-0.01229547096870762,0.0266567280800268,0.003190176426096322,0.9995638609984705,-0.2467076480388641,-0.2379153370857239,-0.9394315481185913,0,0,0,-1,-1,2026-05-26T14:10:01.685+02:00,1475,1.083488,0,0,1181.784,0,0,2026-05-26T15:38:17.271+02:00,801496031.2906098,0,0.8600006,102.2521,0
2026-05-26T15:47:11.915+02:00,1779803230.999495,53.23610689089494,10.40155555272634,22.91459,0,0.188298,234.5376105425829,180,16.78839530571731,2.746852437839412,-9999,3262.225547375,-0.2356719970703125,-0.2505340576171875,-0.9271392822265625,3262.215471375,0.0071498359798063,0.05389755587011705,-0.02545468257784711,-0.1192745342850685,0.04350980743765831,0.0005090476479381323,0.008595198392868042,-0.006292432546615601,0.01343846321105957,XArbitraryZVertical,-0.01281861540479855,0.02689768059197867,0.003230389602488711,0.9995507696524151,-0.2462661117315292,-0.2369173914194107,-0.9397995471954346,0,0,0,-1,-1,2026-05-26T14:10:01.685+02:00,1475,1.083488,0,0,1181.784,0,0,2026-05-26T15:38:17.271+02:00,801496031.2906098,0,0.8600006,102.2521,0
2026-05-26T15:47:11.925+02:00,1779803230.999495,53.23610689089494,10.40155555272634,22.91459,0,0.188298,234.5376105425829,180,16.78839530571731,2.746852437839412,-9999,3262.235622375,-0.2368316650390625,-0.244537353515625,-0.931488037109375,3262.225547375,0.007207347411814458,0.05424062751043295,-0.02658128542598772,-0.1142688542604446,0.03020145930349827,0.0006821530987508595,0.009280383586883545,-0.01086145639419556,0.01436901092529297,XArbitraryZVertical,-0.01338299019867832,0.02706654300058815,0.00324163336168146,0.999538762406679,-0.2459442019462585,-0.2358578890562057,-0.940150260925293,0,0,0,-1,-1,2026-05-26T14:10:01.685+02:00,1475,1.083488,0,0,1181.784,0,0,2026-05-26T15:38:17.271+02:00,801496031.2906098,0,0.8600006,102.2521,0
2026-05-26T15:47:11.935+02:00,1779803230.999495,53.23610689089494,10.40155555272634,22.91459,0,0.188298,234.5376105425829,180,16.78839530571731,2.746852437839412,-9999,3262.245698375,-0.242706298828125,-0.2148284912109375,-0.9268035888671875,3262.235622375,0.007243127252210098,0.0545180126859602,-0.02782235949871291,-0.1281856298446655,0.03243958204984665,-0.006211106199771166,0.009348690509796143,-0.0166899710893631,0.008747518062591553,XArbitraryZVertical,-0.01400417053288786,0.0272024555223215,0.003240716792679502,0.9995265698985182,-0.2456768155097961,-0.2346985638141632,-0.9405102133750916,0,0,0,-1,-1,2026-05-26T14:10:01.685+02:00,1475,1.083488,0,0,1181.784,0,0,2026-05-26T15:38:17.271+02:00,801496031.2906098,0,0.8600006,102.2521,0
2026-05-26T15:47:11.945+02:00,1779803230.999495,53.23610689089494,10.40155555272634,22.91459,0,0.188298,234.5376105425829,180,16.78839530571731,2.746852437839412,-9999,3262.255774375,-0.247894287109375,-0.2198333740234375,-0.9370574951171875,3262.245698375,0.00720035606380916,0.05482685730217793,-0.02899687017655128,-0.1016874462366104,0.03231840580701828,-0.01641527377068996,0.005720853805541992,0.01025043427944183,0.01256150007247925,XArbitraryZVertical,-0.01459105663368828,0.02735476209419166,0.003201053862490748,0.9995141440398397,-0.2453601211309433,-0.2336238026618958,-0.940860390663147,0,0,0,-1,-1,2026-05-26T14:10:01.685+02:00,1475,1.083488,0,0,1181.784,0,0,2026-05-26T15:38:17.271+02:00,801496031.2906098,0,0.8600006,102.2521,0
2026-05-26T15:47:11.956+02:00,1779803230.999495,53.23610689089494,10.40155555272634,22.91459,0,0.188298,234.5376105425829,180,16.78839530571731,2.746852437839412,-9999,3262.265849375,-0.2455902099609375,-0.2158660888671875,-0.9436492919921875,3262.255774375,0.007086789574351955,0.05514573048688551,-0.03001775966092451,-0.0969376415014267,0.03077350556850433,-0.0185007955878973,-0.002098724246025085,0.01773092150688171,0.009351968765258789,XArbitraryZVertical,-0.01510019685660714,0.02751293602868124,0.003127874535504255,0.9995023964947601,-0.2450173497200012,-0.2327119559049606,-0.941175639629364,0,0,0,-1,-1,2026-05-26T14:10:01.685+02:00,1475,1.083488,0,0,1181.784,0,0,2026-05-26T15:38:17.271+02:00,801496031.2906098,0,0.8600006,102.2521,0
2026-05-26T15:47:11.965+02:00,1779803230.999495,53.23610689089494,10.40155555272634,22.91459,0,0.188298,234.5376105425829,180,16.78839530571731,2.746852437839412,-9999,3262.275925375,-0.245849609375,-0.209197998046875,-0.94927978515625,3262.265849375,0.006963350551400755,0.05547997342689801,-0.03080643531673435,-0.06207633018493652,0.04164905846118927,-0.01348020415753126,-0.001250177621841431,0.01244403421878815,-0.0006225705146789551,XArbitraryZVertical,-0.01549314764984081,0.02767936575160373,0.003052705198398329,0.9994920785942957,-0.2446604669094086,-0.2320180088281631,-0.9414398074150085,0,0,0,-1,-1,2026-05-26T14:10:01.685+02:00,1475,1.083488,0,0,1181.784,0,0,2026-05-26T15:38:17.271+02:00,801496031.2906098,0,0.8600006,102.2521,0
2026-05-26T15:47:11.976+02:00,1779803230.999495,53.23610689089494,10.40155555272634,22.91459,0,0.188298,234.5376105425829,180,16.78839530571731,2.746852437839412,-9999,3262.286000375,-0.2425079345703125,-0.207305908203125,-0.9454345703125,3262.275925375,0.006980696730136985,0.05594421102214091,-0.03135796720190522,-0.04432135447859764,0.05531933158636093,0.007698583882302046,-0.002147629857063293,0.02169355750083923,-0.005569338798522949,XArbitraryZVertical,-0.01576972047723591,0.02791014946307809,0.00305005075581475,0.9994813503915889,-0.2442207634449005,-0.2315018773078918,-0.9416809678077698,0,0,0,-1,-1,2026-05-26T14:10:01.685+02:00,1475,1.083488,0,0,1181.784,0,0,2026-05-26T15:38:17.271+02:00,801496031.2906098,0,0.8600006,102.2521,0
2026-05-26T15:47:11.985+02:00,1779803230.999495,53.23610689089494,10.40155555272634,22.91459,0,0.188298,234.5376105425829,180,16.78839530571731,2.746852437839412,-9999,3262.296076375,-0.2427215576171875,-0.2240447998046875,-0.9434661865234375,3262.286000375,0.007141206729615088,0.05651253313748702,-0.03172633754149325,-0.03695745021104813,0.05781285092234612,0.02069800533354282,-0.0001891851425170898,0.0238986611366272,-0.005497395992279053,XArbitraryZVertical,-0.01595693614177973,0.02819215626356541,0.003120568792667894,0.9994702691987765,-0.2437225729227066,-0.2311129868030548,-0.9419055581092834,0,0,0,-1,-1,2026-05-26T14:10:01.685+02:00,1475,1.083488,0,0,1181.784,0,0,2026-05-26T15:38:17.271+02:00,801496031.2906098,0,0.8600006,102.2521,0
2026-05-26T15:47:11.996+02:00,1779803230.999495,53.23610689089494,10.40155555272634,22.91459,0,0.188298,234.5376105425829,180,16.78839530571731,2.746852437839412,-9999,3262.306151375,-0.24017333984375,-0.2351226806640625,-0.9401397705078125,3262.296076375,0.007429671268870133,0.05710896870858397,-0.03205599338487902,-0.03669368848204613,0.0654718354344368,0.03142322227358818,0.0007388442754745483,0.01506955921649933,-0.002314388751983643,XArbitraryZVertical,-0.01612671376540221,0.02848722641316805,0.003255249607502298,0.9994587288194527,-0.2432315200567245,-0.2307219952344894,-0.9421283006668091,0,0,0,-1,-1,2026-05-26T14:10:01.685+02:00,1475,1.083488,0,0,1181.784,0,0,2026-05-26T15:38:17.271+02:00,801496031.2906098,0,0.8600006,102.2521,0
2026-05-26T15:47:12.006+02:00,1779803230.999495,53.23610689089494,10.40155555272634,22.91459,0,0.188298,234.5376105425829,180,16.78839530571731,2.746852437839412,-9999,3262.316227375,-0.242584228515625,-0.2233734130859375,-0.9365692138671875,3262.306151375,0.007760182648475849,0.05780950414736636,-0.03250287664645574,-0.04581980779767036,0.06972623616456985,0.03081974759697914,0.001135483384132385,-0.004271909594535828,0.0004475712776184082,XArbitraryZVertical,-0.01635593437767392,0.02883366467332939,0.003408294409629186,0.999444622254925,-0.2426516115665436,-0.2302098721265793,-0.9424031376838684,0,0,0,-1,-1,2026-05-26T14:10:01.685+02:00,1475,1.083488,0,0,1181.784,0,0,2026-05-26T15:38:17.271+02:00,801496031.2906098,0,0.8600006,102.2521,0
2026-05-26T15:47:12.016+02:00,1779803230.999495,53.23610689089494,10.40155555272634,22.91459,0,0.188298,234.5376105425829,180,16.78839530571731,2.746852437839412,-9999,3262.326303375,-0.24090576171875,-0.2218170166015625,-0.9369964599609375,3262.316227375,0.008027703522450786,0.05849403709416354,-0.03286538420877146,-0.03078115172684193,0.06823273748159409,0.01524817943572998,0.001134902238845825,0.001217886805534363,0.00544363260269165,XArbitraryZVertical,-0.01654215321374853,0.02917273841477113,0.003531069482894658,0.9994312570267958,-0.2420711815357208,-0.2297945320606232,-0.9426537156105042,0,0,0,-1,-1,2026-05-26T14:10:01.685+02:00,1475,1.083488,0,0,1181.784,0,0,2026-05-26T15:38:17.271+02:00,801496031.2906098,0,0.8600006,102.2521,0
2026-05-26T15:47:12.026+02:00,1779803230.999495,53.23610689089494,10.40155555272634,22.91459,0,0.188298,234.5376105425829,180,16.78839530571731,2.746852437839412,-9999,3262.336378375,-0.2388916015625,-0.22235107421875,-0.9354705810546875,3262.326303375,0.008125865097581878,0.05915159632262158,-0.03317359854101514,-0.03641986474394798,0.061871238052845,0.0008721696212887764,-0.001004770398139954,0.008685067296028137,0.006207883358001709,XArbitraryZVertical,-0.01669877805106218,0.02949981587036929,0.003570116061430297,0.9994189330532304,-0.2414726465940475,-0.2294797301292419,-0.9428839087486267,0,0,0,-1,-1,2026-05-26T14:10:01.685+02:00,1475,1.083488,0,0,1181.784,0,0,2026-05-26T15:38:17.271+02:00,801496031.2906098,0,0.8600006,102.2521,0
2026-05-26T15:47:12.036+02:00,1779803230.999495,53.23610689089494,10.40155555272634,22.91459,0,0.188298,234.5376105425829,180,16.78839530571731,2.746852437839412,-9999,3262.346454375,-0.238739013671875,-0.2237548828125,-0.9314422607421875,3262.336378375,0.008009309191325777,0.05974223125619807,-0.03358133240465654,-0.03844327852129936,0.05914389342069626,-0.0307155828922987,0.001789793372154236,0.006571605801582336,0.006320953369140625,XArbitraryZVertical,-0.01690184197429282,0.02979501812700489,0.003500839506585388,0.9994069380326275,-0.2408797591924667,-0.2291362881660461,-0.9431190490722656,0,0,0,-1,-1,2026-05-26T14:10:01.685+02:00,1475,1.083488,0,0,1181.784,0,0,2026-05-26T15:38:17.271+02:00,801496031.2906098,0,0.8600006,102.2521,0
2026-05-26T15:47:12.046+02:00,1779803230.999495,53.23610689089494,10.40155555272634,22.91459,0,0.188298,234.5376105425829,180,16.78839530571731,2.746852437839412,-9999,3262.356529375,-0.23883056640625,-0.2269287109375,-0.9250030517578125,3262.346454375,0.007696921019718281,0.06031385610924234,-0.03407214492847949,-0.06007480621337891,0.05906905978918076,-0.03523204103112221,0.001666083931922913,0.005965083837509155,0.009895265102386475,XArbitraryZVertical,-0.01714340041654725,0.0300822303716362,0.00333249398405541,0.9993948028699423,-0.2402525097131729,-0.2287738919258118,-0.9433669447898865,0,0,0,-1,-1,2026-05-26T14:10:01.685+02:00,1475,1.083488,0,0,1181.784,0,0,2026-05-26T15:38:17.271+02:00,801496031.2906098,0,0.8600006,102.2521,0
2026-05-26T15:47:12.058+02:00,1779803230.999495,53.23610689089494,10.40155555272634,22.91459,0,0.188298,234.5376105425829,180,16.78839530571731,2.746852437839412,-9999,3262.366605375,-0.233489990234375,-0.22357177734375,-0.9240570068359375,3262.356529375,0.007399122022840501,0.06095187301483511,-0.03475578496397794,-0.07180400937795639,0.06692326068878174,-0.0278265867382288,0.0001073479652404785,0.001284345984458923,0.01626038551330566,XArbitraryZVertical,-0.017481543387775,0.03040215355281089,0.003167781107590528,0.9993798045720781,-0.239563524723053,-0.228228285908699,-0.9436742663383484,0,0,0,-1,-1,2026-05-26T14:10:01.685+02:00,1475,1.083488,0,0,1181.784,0,0,2026-05-26T15:38:17.271+02:00,801496031.2906098,0,0.8600006,102.2521,0
2026-05-26T15:47:12.066+02:00,1779803230.999495,53.23610689089494,10.40155555272634,22.91459,0,0.188298,234.5376105425829,180,16.78839530571731,2.746852437839412,-9999,3262.376681375,-0.2246856689453125,-0.220550537109375,-0.9371337890625,3262.366605375,0.007269201210594286,0.06156586393659416,-0.03555026293258819,-0.07785604149103165,0.05330571532249451,-0.01015092059969902,0.002626195549964905,0.002859562635421753,0.02153110504150391,XArbitraryZVertical,-0.01787750683886181,0.03070843606965026,0.00308524510561437,0.9993636594867803,-0.2389390617609024,-0.2275299578905106,-0.9440011978149414,0,0,0,-1,-1,2026-05-26T14:10:01.685+02:00,1475,1.083488,0,0,1181.784,0,0,2026-05-26T15:38:17.271+02:00,801496031.2906098,0,0.8600006,102.2521,0
2026-05-26T15:47:12.089+02:00,1779803230.999495,53.23610689089494,10.40155555272634,22.91459,0,0.188298,234.5376105425829,180,16.78839530571731,2.746852437839412,-9999,3262.386756375,-0.2298736572265625,-0.208984375,-0.9452056884765625,3262.376681375,0.007211158579090303,0.06213208891344707,-0.03619821554841086,-0.05747843533754349,0.06598103046417236,-0.006802061572670937,0.01097850501537323,0.005205422639846802,0.01273387670516968,XArbitraryZVertical,-0.01820124543736133,0.03099053835807132,0.003041098743020669,0.9993492372214521,-0.2383802384138107,-0.2269461303949356,-0.9442829489707947,0,0,0,-1,-1,2026-05-26T14:10:01.685+02:00,1475,1.083488,0,0,1181.784,0,0,2026-05-26T15:38:17.271+02:00,801496031.2906098,0,0.8600006,102.2521,0
2026-05-26T15:47:12.090+02:00,1779803230.999495,53.23610689089494,10.40155555272634,22.91459,0,0.188298,234.5376105425829,180,16.78839530571731,2.746852437839412,-9999,3262.396832375,-0.2354278564453125,-0.2032623291015625,-0.947784423828125,3262.386756375,0.007330940513881367,0.0628145083060259,-0.036774789376929,-0.0540006160736084,0.06754110753536224,0.02310630306601524,0.0125390887260437,0.0121118426322937,0.001110315322875977,XArbitraryZVertical,-0.01849225210148068,0.03132921181660108,0.003085668903001188,0.9993332325745184,-0.2377588152885437,-0.2263757437467575,-0.9445765018463135,0,0,0,-1,-1,2026-05-26T14:10:01.685+02:00,1475,1.083488,0,0,1181.784,0,0,2026-05-26T15:38:17.271+02:00,801496031.2906098,0,0.8600006,102.2521,0
2026-05-26T15:47:12.096+02:00,1779803230.999495,53.23610689089494,10.40155555272634,22.91459,0,0.188298,234.5376105425829,180,16.78839530571731,2.746852437839412,-9999,3262.406907375,-0.2336578369140625,-0.21844482421875,-0.9468994140625,3262.396832375,0.007622002964174522,0.06343094849711281,-0.03715613140755676,-0.02532934211194515,0.05820753052830696,0.02523709647357464,0.001925811171531677,0.02337527275085449,-0.001417458057403564,XArbitraryZVertical,-0.01868834613143898,0.03163369379478883,0.003219343172775337,0.9993196208233667,-0.2372468709945679,-0.2259356677532196,-0.9448105692863464,0,0,0,-1,-1,2026-05-26T14:10:01.685+02:00,1475,1.083488,0,0,1181.784,0,0,2026-05-26T15:38:17.271+02:00,801496031.2906098,0,0.8600006,102.2521,0
2026-05-26T15:47:12.106+02:00,1779803230.999495,53.23610689089494,10.40155555272634,22.91459,0,0.188298,234.5376105425829,180,16.78839530571731,2.746852437839412,-9999,3262.416983375,-0.234344482421875,-0.2168121337890625,-0.93463134765625,3262.406907375,0.007881464842606833,0.06402981125319623,-0.03743220415386791,-0.03179842606186867,0.06089439243078232,0.02236248180270195,0.002781525254249573,0.01269666850566864,-0.004111051559448242,XArbitraryZVertical,-0.01883139349508317,0.03192987159523133,0.003338960920604493,0.9993070476523178,-0.2367445379495621,-0.2256025373935699,-0.9450161457061768,0,0,0,-1,-1,2026-05-26T14:10:01.685+02:00,1475,1.083488,0,0,1181.784,0,0,2026-05-26T15:38:17.271+02:00,801496031.2906098,0,0.8600006,102.2521,0
2026-05-26T15:47:12.116+02:00,1779803230.999495,53.23610689089494,10.40155555272634,22.91459,0,0.188298,234.5376105425829,180,16.78839530571731,2.746852437839412,-9999,3262.427058375,-0.2350311279296875,-0.2180633544921875,-0.9319610595703125,3262.416983375,0.008151708752477935,0.0646283917662399,-0.03761255581908023,-0.0125762615352869,0.05760591849684715,0.02821244858205318,0.002665013074874878,0.005155473947525024,0.005685627460479736,XArbitraryZVertical,-0.01892685819814348,0.03222598554134762,0.003465431879254959,0.9992953274269062,-0.2362465560436249,-0.2253550440073013,-0.9451997876167297,0,0,0,-1,-1,2026-05-26T14:10:01.685+02:00,1475,1.083488,0,0,1181.784,0,0,2026-05-26T15:38:17.271+02:00,801496031.2906098,0,0.8600006,102.2521,0
2026-05-26T15:47:12.126+02:00,1779803230.999495,53.23610689089494,10.40155555272634,22.91459,0,0.188298,234.5376105425829,180,16.78839530571731,2.746852437839412,-9999,3262.437134375,-0.235382080078125,-0.22540283203125,-0.932647705078125,3262.427058375,0.008346129182978,0.06518543714429553,-0.03766402428341201,0.008016365580260754,0.05735771358013153,0.008526094257831573,0.001196488738059998,0.009154677391052246,0.01350498199462891,XArbitraryZVertical,-0.01895669760810748,0.03250234676857298,0.003556460498069282,0.9992855144320347,-0.2357698529958725,-0.2252496331930161,-0.9453439712524414,0,0,0,-1,-1,2026-05-26T14:10:01.685+02:00,1475,1.083488,0,0,1181.784,0,0,2026-05-26T15:38:17.271+02:00,801496031.2906098,0,0.8600006,102.2521,0
2026-05-26T15:47:12.136+02:00,1779803230.999495,53.23610689089494,10.40155555272634,22.91459,0,0.188298,234.5376105425829,180,16.78839530571731,2.746852437839412,-9999,3262.447210375,-0.234039306640625,-0.2346649169921875,-0.9393463134765625,3262.437134375,0.008473983494238958,0.0657116330772119,-0.0374865645785904,0.01674626022577286,0.04835889488458633,0.02463722042739391,0.0003992170095443726,0.003193184733390808,0.01362025737762451,XArbitraryZVertical,-0.01887106166166725,0.03276447367526034,0.00361827508866532,0.9992783662706164,-0.2353082895278931,-0.2253763824701309,-0.945428729057312,0,0,0,-1,-1,2026-05-26T14:10:01.685+02:00,1475,1.083488,0,0,1181.784,0,0,2026-05-26T15:38:17.271+02:00,801496031.2906098,0,0.8600006,102.2521,0
2026-05-26T15:47:12.146+02:00,1779803230.999495,53.23610689089494,10.40155555272634,22.91459,0,0.188298,234.5376105425829,180,16.78839530571731,2.746852437839412,-9999,3262.457285375,-0.2341156005859375,-0.238250732421875,-0.939910888671875,3262.447210375,0.008760078956215625,0.06616502689035658,-0.03750243334599022,-0.02418146468698978,0.04273802787065506,0.02586067654192448,5.999207496643066e-05,-0.006839901208877563,0.008361101150512695,XArbitraryZVertical,-0.01888452928795473,0.03298826695110497,0.003756677371357891,0.999270227154076,-0.2349537909030914,-0.22527676820755,-0.9455406069755554,0,0,0,-1,-1,2026-05-26T14:10:01.685+02:00,1475,1.083488,0,0,1181.784,0,0,2026-05-26T15:38:17.271+02:00,801496031.2906098,0,0.8600006,102.2521,0
2026-05-26T15:47:12.156+02:00,1779803230.999495,53.23610689089494,10.40155555272634,22.91459,0,0.188298,234.5376105425829,180,16.78839530571731,2.746852437839412,-9999,3262.467361375,-0.236846923828125,-0.240203857421875,-0.939727783203125,3262.457285375,0.009059794350121764,0.06658274345715809,-0.03781217170461249,-0.04015319049358368,0.04204320907592773,0.02834087982773781,0.001431986689567566,-0.01193127036094666,0.005555093288421631,XArbitraryZVertical,-0.01904504282132538,0.03319334493746666,0.003897313384121041,0.9992598087144714,-0.2346320748329163,-0.2249003648757935,-0.9457101225852966,0,0,0,-1,-1,2026-05-26T14:10:01.685+02:00,1475,1.083488,0,0,1181.784,0,0,2026-05-26T15:38:17.271+02:00,801496031.2906098,0,0.8600006,102.2521,0
2026-05-26T15:47:12.166+02:00,1779803230.999495,53.23610689089494,10.40155555272634,22.91459,0,0.188298,234.5376105425829,180,16.78839530571731,2.746852437839412,-9999,3262.477436375,-0.2349853515625,-0.225738525390625,-0.941070556640625,3262.467361375,0.009349314036364678,0.06696965349742892,-0.0382678662165435,-0.05235952138900757,0.03478715941309929,0.02378926984965801,-0.002222433686256409,-0.01613275706768036,0.006924629211425781,XArbitraryZVertical,-0.01927830394145186,0.03338268848122228,0.004030633833254292,0.999248525841789,-0.2343345731496811,-0.2243915200233459,-0.9459047317504883,0,0,0,-1,-1,2026-05-26T14:10:01.685+02:00,1475,1.083488,0,0,1181.784,0,0,2026-05-26T15:38:17.271+02:00,801496031.2906098,0,0.8600006,102.2521,0
2026-05-26T15:47:12.177+02:00,1779803230.999495,53.23610689089494,10.40155555272634,22.91459,0,0.188298,234.5376105425829,180,16.78839530571731,2.746852437839412,-9999,3262.487512375,-0.23565673828125,-0.2169036865234375,-0.9394683837890625,3262.477436375,0.009684397274725816,0.06731583547217196,-0.0386824039705943,-0.0340338833630085,0.03344971686601639,0.03361180797219276,-0.0009889751672744751,-0.008087322115898132,0.004979431629180908,XArbitraryZVertical,-0.01949173284069273,0.03355128091266855,0.004187718690081939,0.9992381060525981,-0.2340879440307617,-0.2239072769880295,-0.9460805058479309,0,0,0,-1,-1,2026-05-26T14:10:01.685+02:00,1475,1.083488,0,0,1181.784,0,0,2026-05-26T15:38:17.271+02:00,801496031.2906098,0,0.8600006,102.2521,0
2026-05-26T15:47:12.187+02:00,1779803230.999495,53.23610689089494,10.40155555272634,22.91459,0,0.188298,234.5376105425829,180,16.78839530571731,2.746852437839412,-9999,3262.497587375,-0.236236572265625,-0.2106170654296875,-0.93377685546875,3262.487512375,0.01005960822300191,0.06766700402966633,-0.03897327897599933,-0.02362704835832119,0.0360255278646946,0.03718097507953644,-0.00221996009349823,0.005126819014549255,0.006059587001800537,XArbitraryZVertical,-0.01964411939550848,0.03372224698253562,0.004366824627258925,0.9992285991420626,-0.2338487654924393,-0.2235258370637894,-0.946229875087738,0,0,0,-1,-1,2026-05-26T14:10:01.685+02:00,1475,1.083488,0,0,1181.784,0,0,2026-05-26T15:38:17.271+02:00,801496031.2906098,0,0.8600006,102.2521,0
2026-05-26T15:47:12.197+02:00,1779803230.999495,53.23610689089494,10.40155555272634,22.91459,0,0.188298,234.5376105425829,180,16.78839530571731,2.746852437839412,-9999,3262.507663375,-0.23797607421875,-0.214752197265625,-0.93585205078125,3262.497587375,0.01042612900011361,0.06806006393154826,-0.03907443483484482,-0.003894995898008347,0.03912438452243805,0.03305946663022041,-0.00280347466468811,0.01006621122360229,0.0104791522026062,XArbitraryZVertical,-0.01970173153274439,0.03391472782682736,0.004544356082116602,0.9992201323014525,-0.2335704416036606,-0.2233230322599411,-0.9463464617729187,0,0,0,-1,-1,2026-05-26T14:10:01.685+02:00,1475,1.083488,0,0,1181.784,0,0,2026-05-26T15:38:17.271+02:00,801496031.2906098,0,0.8600006,102.2521,0
2026-05-26T15:47:12.207+02:00,1779803231.9995,53.23610689430242,10.40155554542704,22.91459,0,0.188298,234.5376105425829,180,16.64657635503533,2.748902415971013,-9999,3262.517739375,-0.234771728515625,-0.229034423828125,-0.93157958984375,3262.507663375,0.01071620499738886,0.06840032678521893,-0.03903030617845141,0.002793000545352697,0.03185821324586868,0.0271427221596241,-0.004346504807472229,0.01299643516540527,0.01186281442642212,XArbitraryZVertical,-0.01968540052047854,0.03408200029698829,0.004686684689384223,0.9992141258309902,-0.2333243936300278,-0.2232777923345566,-0.9464178681373596,0,0,0,-1,-1,2026-05-26T14:10:01.685+02:00,1475,1.083488,0,0,1181.784,0,0,2026-05-26T15:38:17.271+02:00,801496031.2906098,0,0.8600006,102.2521,0
2026-05-26T15:47:12.217+02:00,1779803231.9995,53.23610689430242,10.40155554542704,22.91459,0,0.188298,234.5376105425829,180,16.64657635503533,2.748902415971013,-9999,3262.527814375,-0.2342681884765625,-0.23040771484375,-0.92767333984375,3262.517739375,0.01094461255622373,0.0687188270874183,-0.03919530499124844,-0.03021075576543808,0.03005711734294891,0.01453205570578575,-0.003385752439498901,-0.001033812761306763,0.01253980398178101,XArbitraryZVertical,-0.01977248997352223,0.03423836921323525,0.004794820730650412,0.9992065674453757,-0.2330797016620636,-0.2230567336082458,-0.946530282497406,0,0,0,-1,-1,2026-05-26T14:10:01.685+02:00,1475,1.083488,0,0,1181.784,0,0,2026-05-26T15:38:17.271+02:00,801496031.2906098,0,0.8600006,102.2521,0
2026-05-26T15:47:12.227+02:00,1779803231.9995,53.23610689430242,10.40155554542704,22.91459,0,0.188298,234.5376105425829,180,16.64657635503533,2.748902415971013,-9999,3262.537890375,-0.24298095703125,-0.2281494140625,-0.9338531494140625,3262.527814375,0.01106724867191132,0.06906196081872917,-0.03947661841326278,-0.0337037555873394,0.03416158258914948,0.003771819407120347,-0.0007686316967010498,-0.008396223187446594,0.01875603199005127,XArbitraryZVertical,-0.01991596463587242,0.0344077127284995,0.004847826960554043,0.9991976737912576,-0.2327824085950851,-0.2227591425180435,-0.9466735124588013,0,0,0,-1,-1,2026-05-26T14:10:01.685+02:00,1475,1.083488,0,0,1181.784,0,0,2026-05-26T15:38:17.271+02:00,801496031.2906098,0,0.8600006,102.2521,0
2026-05-26T15:47:12.237+02:00,1779803231.9995,53.23610689430242,10.40155554542704,22.91459,0,0.188298,234.5376105425829,180,16.64657635503533,2.748902415971013,-9999,3262.547965375,-0.2448883056640625,-0.2330474853515625,-0.9364166259765625,3262.537890375,0.01111247808124413,0.0694546125804289,-0.03983955189015618,-0.03731079399585724,0.04550185054540634,0.001906008808873594,-0.007390320301055908,-0.006122112274169922,0.01549500226974487,XArbitraryZVertical,-0.02009901638687387,0.03460229702800751,0.004860193966253372,0.999187245820071,-0.2324168086051941,-0.2224087566137314,-0.9468457102775574,0,0,0,-1,-1,2026-05-26T14:10:01.685+02:00,1475,1.083488,0,0,1181.784,0,0,2026-05-26T15:38:17.271+02:00,801496031.2906098,0,0.8600006,102.2521,0
2026-05-26T15:47:12.247+02:00,1779803231.9995,53.23610689430242,10.40155554542704,22.91459,0,0.188298,234.5376105425829,180,16.64657635503533,2.748902415971013,-9999,3262.558041375,-0.2386474609375,-0.2431793212890625,-0.9354400634765625,3262.547965375,0.0111978863499818,0.06987515168326695,-0.04036732720674512,-0.06777363270521164,0.03556320071220398,0.004164102952927351,-0.01296254992485046,-0.008636429905891418,0.01155978441238403,XArbitraryZVertical,-0.02036519348330857,0.03480987632920794,0.00488939152029751,0.9991744769408174,-0.2320325523614883,-0.221893310546875,-0.9470608234405518,0,0,0,-1,-1,2026-05-26T14:10:01.685+02:00,1475,1.083488,0,0,1181.784,0,0,2026-05-26T15:38:17.271+02:00,801496031.2906098,0,0.8600006,102.2521,0
2026-05-26T15:47:12.257+02:00,1779803231.9995,53.23610689430242,10.40155554542704,22.91459,0,0.188298,234.5376105425829,180,16.64657635503533,2.748902415971013,-9999,3262.568116375,-0.2348785400390625,-0.2436981201171875,-0.932769775390625,3262.558041375,0.01125827566271743,0.07019666028395985,-0.04113357358779142,-0.08641213178634644,0.03104674816131592,0.0004119088407605886,-0.01022683084011078,-0.0183991938829422,0.01209396123886108,XArbitraryZVertical,-0.02074983641854472,0.03496745562785936,0.004902802279061472,0.999160940521731,-0.2317317873239517,-0.2211637645959854,-0.9473050832748413,0,0,0,-1,-1,2026-05-26T14:10:01.685+02:00,1475,1.083488,0,0,1181.784,0,0,2026-05-26T15:38:17.271+02:00,801496031.2906098,0,0.8600006,102.2521,0
2026-05-26T15:47:12.267+02:00,1779803231.9995,53.23610689430242,10.40155554542704,22.91459,0,0.188298,234.5376105425829,180,16.64657635503533,2.748902415971013,-9999,3262.578192375,-0.235870361328125,-0.2221527099609375,-0.9301910400390625,3262.568116375,0.01140857261421964,0.07051985757592738,-0.04204019353784762,-0.09436406940221786,0.03641461580991745,0.01211623568087816,-0.003916338086128235,-0.02592355012893677,0.01325428485870361,XArbitraryZVertical,-0.02120618936957986,0.0351244429995468,0.004958503687437004,0.9991455741815741,-0.2314504832029343,-0.2202769815921783,-0.9475804567337036,0,0,0,-1,-1,2026-05-26T14:10:01.685+02:00,1475,1.083488,0,0,1181.784,0,0,2026-05-26T15:38:17.271+02:00,801496031.2906098,0,0.8600006,102.2521,0
2026-05-26T15:47:12.278+02:00,1779803231.9995,53.23610689430242,10.40155554542704,22.91459,0,0.188298,234.5376105425829,180,16.64657635503533,2.748902415971013,-9999,3262.588268375,-0.2367401123046875,-0.2062225341796875,-0.9305419921875,3262.578192375,0.01165055928051274,0.07092787247661131,-0.04292371331752663,-0.08306369185447693,0.04433378949761391,0.02628778107464314,-0.004437103867530823,-0.01177115738391876,0.01709908246994019,XArbitraryZVertical,-0.02165284799627436,0.03532280547304005,0.00505935234361541,0.999128493669488,-0.2311128228902817,-0.2193842232227325,-0.9478699564933777,0,0,0,-1,-1,2026-05-26T14:10:01.685+02:00,1475,1.083488,0,0,1181.784,0,0,2026-05-26T15:38:17.271+02:00,801496031.2906098,0,0.8600006,102.2521,0
2026-05-26T15:47:12.288+02:00,1779803231.9995,53.23610689430242,10.40155554542704,22.91459,0,0.188298,234.5376105425829,180,16.64657635503533,2.748902415971013,-9999,3262.598343375,-0.232513427734375,-0.213592529296875,-0.9342498779296875,3262.588268375,0.01204973852346968,0.07133488453079379,-0.04366661384230371,-0.0701012909412384,0.03469421342015266,0.03945232182741165,-0.00572282075881958,0.008187025785446167,0.01819676160812378,XArbitraryZVertical,-0.02203208495939636,0.03551928656116994,0.005241068805844461,0.9991123455048768,-0.2308189272880554,-0.218575194478035,-0.9481284022331238,0,0,0,-1,-1,2026-05-26T14:10:01.685+02:00,1475,1.083488,0,0,1181.784,0,0,2026-05-26T15:38:17.271+02:00,801496031.2906098,0,0.8600006,102.2521,0
2026-05-26T15:47:12.298+02:00,1779803231.9995,53.23610689430242,10.40155554542704,22.91459,0,0.188298,234.5376105425829,180,16.64657635503533,2.748902415971013,-9999,3262.608419375,-0.231597900390625,-0.220245361328125,-0.9258880615234375,3262.598343375,0.01252536122356993,0.07167058539244049,-0.04440737912894594,-0.08440911769866943,0.03172798454761505,0.04489348828792572,-0.003884762525558472,0.009249165654182434,0.01427233219146729,XArbitraryZVertical,-0.02241149659562597,0.03567913718579583,0.005461651842428315,0.9990970279235055,-0.2306123077869415,-0.21774522960186,-0.9483696222305298,0,0,0,-1,-1,2026-05-26T14:10:01.685+02:00,1475,1.083488,0,0,1181.784,0,0,2026-05-26T15:38:17.271+02:00,801496031.2906098,0,0.8600006,102.2521,0
2026-05-26T15:47:12.308+02:00,1779803231.9995,53.23610689430242,10.40155554542704,22.91459,0,0.188298,234.5376105425829,180,16.64657635503533,2.748902415971013,-9999,3262.618494375,-0.237091064453125,-0.2281494140625,-0.9218902587890625,3262.608419375,0.01301498849700887,0.07201120179627953,-0.04523990251748365,-0.08244556933641434,0.02806267514824867,0.03999833017587662,-0.0002182871103286743,-0.00242789089679718,0.0188063383102417,XArbitraryZVertical,-0.0228370788579305,0.03584076137816027,0.005687384772356852,0.9990803351620373,-0.2304030656814575,-0.2168256342411041,-0.9486311674118042,0,0,0,-1,-1,2026-05-26T14:10:01.685+02:00,1475,1.083488,0,0,1181.784,0,0,2026-05-26T15:38:17.271+02:00,801496031.2906098,0,0.8600006,102.2521,0
2026-05-26T15:47:12.318+02:00,1779803231.9995,53.23610689430242,10.40155554542704,22.91459,0,0.188298,234.5376105425829,180,16.64657635503533,2.748902415971013,-9999,3262.628570375,-0.2366180419921875,-0.2360382080078125,-0.9143218994140625,3262.618494375,0.0134645460255493,0.07234376913476338,-0.04611539649141004,-0.1007767990231514,0.03619197383522987,0.03582056611776352,-0.0054512619972229,-0.007281988859176636,0.02656620740890503,XArbitraryZVertical,-0.02328345288120808,0.03599845348563142,0.005892264622112017,0.9990631164509766,-0.2301902174949646,-0.2158777862787247,-0.94889897108078,0,0,0,-1,-1,2026-05-26T14:10:01.685+02:00,1475,1.083488,0,0,1181.784,0,0,2026-05-26T15:38:17.271+02:00,801496031.2906098,0,0.8600006,102.2521,0
2026-05-26T15:47:12.328+02:00,1779803231.9995,53.23610689430242,10.40155554542704,22.91459,0,0.188298,234.5376105425829,180,16.64657635503533,2.748902415971013,-9999,3262.638645375,-0.2372894287109375,-0.2373809814453125,-0.908111572265625,3262.628570375,0.01390525614110086,0.07275091693383498,-0.04711940566187176,-0.108221136033535,0.04262537136673927,0.03587888926267624,-0.007402509450912476,-0.01979097723960876,0.03182148933410645,XArbitraryZVertical,-0.02379414979839307,0.03619279173195163,0.006089338964536149,0.9990428803264163,-0.2299021929502487,-0.2148128747940063,-0.9492104053497314,0,0,0,-1,-1,2026-05-26T14:10:01.685+02:00,1475,1.083488,0,0,1181.784,0,0,2026-05-26T15:38:17.271+02:00,801496031.2906098,0,0.8600006,102.2521,0
2026-05-26T15:47:12.338+02:00,1779803231.9995,53.23610689430242,10.40155554542704,22.91459,0,0.188298,234.5376105425829,180,16.64657635503533,2.748902415971013,-9999,3262.648721375,-0.2378387451171875,-0.247802734375,-0.91180419921875,3262.638645375,0.01434690605561533,0.0731676903082908,-0.04816187419058686,-0.09758473932743073,0.03962691873311996,0.03390282392501831,-0.00719664990901947,-0.02217389643192291,0.041098952293396,XArbitraryZVertical,-0.02432417569960896,0.0363915313013077,0.006285844426356269,0.9990217315031729,-0.229604497551918,-0.2137116938829422,-0.9495309591293335,0,0,0,-1,-1,2026-05-26T14:10:01.685+02:00,1475,1.083488,0,0,1181.784,0,0,2026-05-26T15:38:17.271+02:00,801496031.2906098,0,0.8600006,102.2521,0
2026-05-26T15:47:12.364+02:00,1779803231.9995,53.23610689430242,10.40155554542704,22.91459,0,0.188298,234.5376105425829,180,16.64657635503533,2.748902415971013,-9999,3262.658797375,-0.2360076904296875,-0.2336578369140625,-0.9172210693359375,3262.648721375,0.01472683226819105,0.07361723832014465,-0.04904334384513434,-0.08417945355176926,0.05046864971518517,0.03301572427153587,-0.008622512221336365,-0.03273549675941467,0.03980439901351929,XArbitraryZVertical,-0.02477283617907472,0.03660782882757647,0.00645385995868536,0.999001672757457,-0.2292619943618774,-0.2127783745527267,-0.9498233199119568,0,0,0,-1,-1,2026-05-26T14:10:01.685+02:00,1475,1.083488,0,0,1181.784,0,0,2026-05-26T15:38:17.271+02:00,801496031.2906098,0,0.8600006,102.2521,0
2026-05-26T15:47:12.367+02:00,1779803231.9995,53.23610689430242,10.40155554542704,22.91459,0,0.188298,234.5376105425829,180,16.64657635503533,2.748902415971013,-9999,3262.668872375,-0.240142822265625,-0.221649169921875,-0.9244842529296875,3262.658797375,0.01511586017651913,0.07412480926634596,-0.04964645569266875,-0.04047596454620361,0.04828539118170738,0.03260313346982002,-0.007335096597671509,-0.0295063853263855,0.03492313623428345,XArbitraryZVertical,-0.02508288737872432,0.03685398485785971,0.006630663966442699,0.998983803332591,-0.2288709580898285,-0.2121012508869171,-0.9500690102577209,0,0,0,-1,-1,2026-05-26T14:10:01.685+02:00,1475,1.083488,0,0,1181.784,0,0,2026-05-26T15:38:17.271+02:00,801496031.2906098,0,0.8600006,102.2521,0
2026-05-26T15:47:12.369+02:00,1779803231.9995,53.23610689430242,10.40155554542704,22.91459,0,0.188298,234.5376105425829,180,16.64657635503533,2.748902415971013,-9999,3262.678948375,-0.23907470703125,-0.2274627685546875,-0.9199981689453125,3262.668872375,0.01547638331833328,0.07470905202194178,-0.05002987648623426,-0.04723506793379784,0.06513653695583344,0.03559119999408722,-0.01044289767742157,-0.01106508076190948,0.02856278419494629,XArbitraryZVertical,-0.0252830288621469,0.03713962497088122,0.006796218681778427,0.9989670679553139,-0.2284029275178909,-0.2116369307041168,-0.9502851963043213,0,0,0,-1,-1,2026-05-26T14:10:01.685+02:00,1475,1.083488,0,0,1181.784,0,0,2026-05-26T15:38:17.271+02:00,801496031.2906098,0,0.8600006,102.2521,0
2026-05-26T15:47:12.379+02:00,1779803231.9995,53.23610689430242,10.40155554542704,22.91459,0,0.188298,234.5376105425829,180,16.64657635503533,2.748902415971013,-9999,3262.689023375,-0.2347564697265625,-0.24371337890625,-0.9173126220703125,3262.678948375,0.01580788926346605,0.07532353052593228,-0.05041325709565203,-0.03061896376311779,0.05650070682168007,0.02209729701280594,-0.01225960254669189,-0.01306191086769104,0.02738142013549805,XArbitraryZVertical,-0.02548280851808545,0.03744065830845886,0.006946776930394124,0.998949730947532,-0.2278984785079956,-0.2111812382936478,-0.950507640838623,0,0,0,-1,-1,2026-05-26T14:10:01.685+02:00,1475,1.083488,0,0,1181.784,0,0,2026-05-26T15:38:17.271+02:00,801496031.2906098,0,0.8600006,102.2521,0
2026-05-26T15:47:12.388+02:00,1779803231.9995,53.23610689430242,10.40155554542704,22.91459,0,0.188298,234.5376105425829,180,16.64657635503533,2.748902415971013,-9999,3262.699099375,-0.227020263671875,-0.2521514892578125,-0.9152984619140625,3262.689023375,0.01608920953528099,0.07587533124974875,-0.0509158962640503,-0.07685836404561996,0.05054454877972603,0.02732747979462147,-0.009484648704528809,-0.02598853409290314,0.03423631191253662,XArbitraryZVertical,-0.02574107628373038,0.03771042004511772,0.007070676652360477,0.9989321273586826,-0.2274385690689087,-0.2106294929981232,-0.9507402181625366,0,0,0,-1,-1,2026-05-26T14:10:01.685+02:00,1475,1.083488,0,0,1181.784,0,0,2026-05-26T15:38:17.271+02:00,801496031.2906098,0,0.8600006,102.2521,0
2026-05-26T15:47:12.398+02:00,1779803231.9995,53.23610689430242,10.40155554542704,22.91459,0,0.188298,234.5376105425829,180,16.64657635503533,2.748902415971013,-9999,3262.709175375,-0.2286376953125,-0.2593841552734375,-0.9117584228515625,3262.699099375,0.01650202131824048,0.07635929309495701,-0.05183193003331525,-0.1133111268281937,0.04223388805985451,0.03824151307344437,-0.003032281994819641,-0.0411398857831955,0.03379231691360474,XArbitraryZVertical,-0.02620813367234882,0.03794260499673899,0.007253057982258365,0.9989098320307883,-0.2270702421665192,-0.2096535414457321,-0.9510439038276672,0,0,0,-1,-1,2026-05-26T14:10:01.685+02:00,1475,1.083488,0,0,1181.784,0,0,2026-05-26T15:38:17.271+02:00,801496031.2906098,0,0.8600006,102.2521,0
2026-05-26T15:47:12.408+02:00,1779803231.9995,53.23610689430242,10.40155554542704,22.91459,0,0.188298,234.5376105425829,180,16.64657635503533,2.748902415971013,-9999,3262.719250375,-0.2335052490234375,-0.2669677734375,-0.906524658203125,3262.709175375,0.01699607560476684,0.07677618167372931,-0.0532186460426981,-0.1715613901615143,0.03653019666671753,0.04180162772536278,0.0003080368041992188,-0.04607285559177399,0.03938108682632446,XArbitraryZVertical,-0.02691164638057254,0.03813776192663193,0.007467596049952947,0.9988820908601648,-0.226778969168663,-0.2082148343324661,-0.9514293670654297,0,0,0,-1,-1,2026-05-26T14:10:01.685+02:00,1475,1.083488,0,0,1181.784,0,0,2026-05-26T15:38:17.271+02:00,801496031.2906098,0,0.8600006,102.2521,0
2026-05-26T15:47:12.418+02:00,1779803231.9995,53.23610689430242,10.40155554542704,22.91459,0,0.188298,234.5376105425829,180,16.64657635503533,2.748902415971013,-9999,3262.729326375,-0.2359771728515625,-0.2537689208984375,-0.9044952392578125,3262.719250375,0.01757464414780491,0.07717937219837932,-0.05514423689104754,-0.2167905420064926,0.03842610120773315,0.03941203653812408,-0.005953863263130188,-0.06038357317447662,0.04287838935852051,XArbitraryZVertical,-0.02788591918997517,0.03832188491556867,0.007713770009286714,0.9988465016356003,-0.2265137881040573,-0.206248477101326,-0.951920747756958,0,0,0,-1,-1,2026-05-26T14:10:01.685+02:00,1475,1.083488,0,0,1181.784,0,0,2026-05-26T15:38:17.271+02:00,801496031.2906098,0,0.8600006,102.2521,0
2026-05-26T15:47:12.429+02:00,1779803231.9995,53.23610689430242,10.40155554542704,22.91459,0,0.188298,234.5376105425829,180,16.64657635503533,2.748902415971013,-9999,3262.739401375,-0.2379913330078125,-0.244140625,-0.907958984375,3262.729326375,0.01817502608497269,0.07760288114412155,-0.05745394699135885,-0.2485940009355545,0.0395217277109623,0.04509948194026947,-0.009489119052886963,-0.05652020871639252,0.04823964834213257,XArbitraryZVertical,-0.02905258701354605,0.03851327680980501,0.007962632303842025,0.9988039529758397,-0.2262286394834518,-0.2039167582988739,-0.9524906873703003,0,0,0,-1,-1,2026-05-26T14:10:01.685+02:00,1475,1.083488,0,0,1181.784,0,0,2026-05-26T15:38:17.271+02:00,801496031.2906098,0,0.8600006,102.2521,0
2026-05-26T15:47:12.438+02:00,1779803231.9995,53.23610689430242,10.40155554542704,22.91459,0,0.188298,234.5376105425829,180,16.64657635503533,2.748902415971013,-9999,3262.749477375,-0.24102783203125,-0.2415313720703125,-0.9112701416015625,3262.739401375,0.01880865411834827,0.07802980599120915,-0.05994684548309892,-0.2514328956604004,0.03795818239450455,0.04602526500821114,-0.01167936623096466,-0.04501110315322876,0.04600328207015991,XArbitraryZVertical,-0.03031145258395102,0.03870414562618673,0.008223924751121053,0.9987569437981694,-0.2259457558393478,-0.2014030665159225,-0.9530925154685974,0,0,0,-1,-1,2026-05-26T14:10:01.685+02:00,1475,1.083488,0,0,1181.784,0,0,2026-05-26T15:38:17.271+02:00,801496031.2906098,0,0.8600006,102.2521,0
2026-05-26T15:47:12.449+02:00,1779803231.9995,53.23610689430242,10.40155554542704,22.91459,0,0.188298,234.5376105425829,180,16.64657635503533,2.748902415971013,-9999,3262.759552375,-0.24359130859375,-0.2344818115234375,-0.9074859619140625,3262.749477375,0.01943647582435255,0.07844423445618985,-0.06237418553364332,-0.2462410628795624,0.04144079983234406,0.04229523986577988,-0.01486523449420929,-0.04305334389209747,0.04374426603317261,XArbitraryZVertical,-0.03153746755219235,0.03888834910141602,0.008483235029649983,0.9987096528889947,-0.2256743162870407,-0.1989510357379913,-0.9536716341972351,0,0,0,-1,-1,2026-05-26T14:10:01.685+02:00,1475,1.083488,0,0,1181.784,0,0,2026-05-26T15:38:17.271+02:00,801496031.2906098,0,0.8600006,102.2521,0
2026-05-26T15:47:12.459+02:00,1779803231.9995,53.23610689430242,10.40155554542704,22.91459,0,0.188298,234.5376105425829,180,16.64657635503533,2.748902415971013,-9999,3262.769628375,-0.2464752197265625,-0.22216796875,-0.8956298828125,3262.759552375,0.02007094093984458,0.07894787997309392,-0.06481248687459694,-0.2410651445388794,0.05286416038870811,0.04284145683050156,-0.01749387383460999,-0.04228392243385315,0.04398822784423828,XArbitraryZVertical,-0.03276952496760736,0.03911608861981564,0.008743638293841069,0.9986588831542903,-0.2253192365169525,-0.1964855939149857,-0.9542665481567383,0,0,0,-1,-1,2026-05-26T14:10:01.685+02:00,1475,1.083488,0,0,1181.784,0,0,2026-05-26T15:38:17.271+02:00,801496031.2906098,0,0.8600006,102.2521,0
2026-05-26T15:47:12.469+02:00,1779803231.9995,53.23610689430242,10.40155554542704,22.91459,0,0.188298,234.5376105425829,180,16.64657635503533,2.748902415971013,-9999,3262.779704375,-0.244232177734375,-0.2271728515625,-0.8890380859375,3262.769628375,0.02072583439777268,0.07953800352305679,-0.06710201458097931,-0.2306753545999527,0.05582133680582047,0.04942958429455757,-0.02082328498363495,-0.03268536925315857,0.05564510822296143,XArbitraryZVertical,-0.03392816488339624,0.03938667037684252,0.009015094173023883,0.9986071859120422,-0.2248889952898026,-0.1941517740488052,-0.9548455476760864,0,0,0,-1,-1,2026-05-26T14:10:01.685+02:00,1475,1.083488,0,0,1181.784,0,0,2026-05-26T15:38:17.271+02:00,801496031.2906098,0,0.8600006,102.2521,0
2026-05-26T15:47:12.479+02:00,1779803231.9995,53.23610689430242,10.40155554542704,22.91459,0,0.188298,234.5376105425829,180,16.64657635503533,2.748902415971013,-9999,3262.789779375,-0.2393646240234375,-0.2460784912109375,-0.8735504150390625,3262.779704375,0.02140545193422523,0.08009891356545017,-0.06936889187525995,-0.2362591475248337,0.04658469557762146,0.04755019024014473,-0.02118867635726929,-0.03079508244991302,0.06305849552154541,XArbitraryZVertical,-0.03507595847505533,0.03964153942941183,0.009299143798841373,0.9985548322240992,-0.224493071436882,-0.1918306201696396,-0.9554076790809631,0,0,0,-1,-1,2026-05-26T14:10:01.685+02:00,1475,1.083488,0,0,1181.784,0,0,2026-05-26T15:38:17.271+02:00,801496031.2906098,0,0.8600006,102.2521,0
2026-05-26T15:47:12.489+02:00,1779803231.9995,53.23610689430242,10.40155554542704,22.91459,0,0.188298,234.5376105425829,180,16.64657635503533,2.748902415971013,-9999,3262.799855375,-0.23968505859375,-0.2484588623046875,-0.8566131591796875,3262.789779375,0.02206185211830237,0.08057607817106674,-0.07200187541363599,-0.2969240844249725,0.03989163786172867,0.03954393044114113,-0.0169234573841095,-0.0504050999879837,0.07654350996017456,XArbitraryZVertical,-0.03640576442982444,0.03985188691035193,0.009564996368986656,0.9984963387349022,-0.2241654247045517,-0.1891731321811676,-0.9560143351554871,0,0,0,-1,-1,2026-05-26T14:10:01.685+02:00,1475,1.083488,0,0,1181.784,0,0,2026-05-26T15:38:17.271+02:00,801496031.2906098,0,0.8600006,102.2521,0
2026-05-26T15:47:12.499+02:00,1779803231.9995,53.23610689430242,10.40155554542704,22.91459,0,0.188298,234.5376105425829,180,16.64657635503533,2.748902415971013,-9999,3262.809930375,-0.2364044189453125,-0.2431640625,-0.838470458984375,3262.799855375,0.02268782935895516,0.08096294843628941,-0.07526284723821022,-0.3622280657291412,0.02895723283290863,0.03375661745667458,-0.01597660779953003,-0.06470486521720886,0.09379476308822632,XArbitraryZVertical,-0.0380480610841258,0.04001273823440914,0.009803851705462024,0.9984263159181045,-0.2239068001508713,-0.1859359741210938,-0.9567097425460815,0,0,0,-1,-1,2026-05-26T14:10:01.685+02:00,1475,1.083488,0,0,1181.784,0,0,2026-05-26T15:38:17.271+02:00,801496031.2906098,0,0.8600006,102.2521,0
2026-05-26T15:47:12.509+02:00,1779803231.9995,53.23610689430242,10.40155554542704,22.91459,0,0.188298,234.5376105425829,180,16.64657635503533,2.748902415971013,-9999,3262.820006375,-0.2318115234375,-0.24578857421875,-0.819244384765625,3262.809930375,0.02331305562870394,0.08122930720376099,-0.07934521476308173,-0.451310783624649,0.01171832345426083,0.02500174008309841,-0.01385830342769623,-0.06218191981315613,0.1131253838539124,XArbitraryZVertical,-0.04009971368912517,0.04010685137062774,0.01002717281899565,0.9983400769826638,-0.2237515598535538,-0.1819281727075577,-0.9575162529945374,0,0,0,-1,-1,2026-05-26T14:10:01.685+02:00,1475,1.083488,0,0,1181.784,0,0,2026-05-26T15:38:17.271+02:00,801496031.2906098,0,0.8600006,102.2521,0
2026-05-26T15:47:12.519+02:00,1779803231.9995,53.23610689430242,10.40155554542704,22.91459,0,0.188298,234.5376105425829,180,16.64657635503533,2.748902415971013,-9999,3262.830081375,-0.2294158935546875,-0.2538604736328125,-0.7948150634765625,3262.820006375,0.02391280435358974,0.08129019130644759,-0.08428071213999513,-0.5438001155853271,-0.006324325688183308,0.01341419387608767,-0.009668990969657898,-0.06655725836753845,0.1309571266174316,XArbitraryZVertical,-0.04257547617208551,0.04009166072750191,0.01022393919794434,0.998236155542028,-0.2237752228975296,-0.1771255731582642,-0.9584107398986816,0,0,0,-1,-1,2026-05-26T14:10:01.685+02:00,1475,1.083488,0,0,1181.784,0,0,2026-05-26T15:38:17.271+02:00,801496031.2906098,0,0.8600006,102.2521,0
2026-05-26T15:47:12.530+02:00,1779803231.9995,53.23610689430242,10.40155554542704,22.91459,0,0.188298,234.5376105425829,180,16.64657635503533,2.748902415971013,-9999,3262.840157375,-0.2257537841796875,-0.247711181640625,-0.761260986328125,3262.830081375,0.02451637757570506,0.08111553018836237,-0.090208248805907,-0.6230393052101135,-0.03415569290518761,0.006187972147017717,-0.006165087223052979,-0.08038297295570374,0.1545120477676392,XArbitraryZVertical,-0.04554488247882714,0.03995013032097751,0.01040728203517219,0.9981088194095662,-0.2240137606859207,-0.1713870316743851,-0.9593979120254517,0,0,0,-1,-1,2026-05-26T14:10:01.685+02:00,1475,1.083488,0,0,1181.784,0,0,2026-05-26T15:38:17.271+02:00,801496031.2906098,0,0.8600006,102.2521,0
2026-05-26T15:47:12.540+02:00,1779803231.9995,53.23610689430242,10.40155554542704,22.91459,0,0.188298,234.5376105425829,180,16.64657635503533,2.748902415971013,-9999,3262.850233375,-0.2241363525390625,-0.2238311767578125,-0.7257537841796875,3262.840157375,0.02509036615835036,0.08074258150656943,-0.09657476448229442,-0.6469988822937012,-0.04563018679618835,0.007187656592577696,-0.001916483044624329,-0.08660706877708435,0.1865896582603455,XArbitraryZVertical,-0.04873121945360135,0.03970507975982426,0.0105720380903623,0.9979664206173506,-0.2244323939085007,-0.165239229798317,-0.960378110408783,0,0,0,-1,-1,2026-05-26T14:10:01.685+02:00,1475,1.083488,0,0,1181.784,0,0,2026-05-26T15:38:17.271+02:00,801496031.2906098,0,0.8600006,102.2521,0
2026-05-26T15:47:12.550+02:00,1779803231.9995,53.23610689430242,10.40155554542704,22.91459,0,0.188298,234.5376105425829,180,16.64657635503533,2.748902415971013,-9999,3262.860308375,-0.229736328125,-0.1895751953125,-0.6970672607421875,3262.850233375,0.02562318836134048,0.08025727847879498,-0.1031737927845611,-0.6613985896110535,-0.05700507760047913,-0.01444733235985041,0.0001416802406311035,-0.07726642489433289,0.2221332192420959,XArbitraryZVertical,-0.05203155390081417,0.03940114469383287,0.01071543186577498,0.9978103511735497,-0.2249494194984436,-0.1588785797357559,-0.9613299965858459,0,0,0,-1,-1,2026-05-26T14:10:01.685+02:00,1475,1.083488,0,0,1181.784,0,0,2026-05-26T15:38:17.271+02:00,801496031.2906098,0,0.8600006,102.2521,0
2026-05-26T15:47:12.560+02:00,1779803231.9995,53.23610689430242,10.40155554542704,22.91459,0,0.188298,234.5376105425829,180,16.64657635503533,2.748902415971013,-9999,3262.870384375,-0.2451324462890625,-0.1886749267578125,-0.6804046630859375,3262.860308375,0.02592316117621188,0.07980228575123643,-0.109825156988,-0.6632648110389709,-0.03797359764575958,-0.03295363858342171,-0.0007083266973495483,-0.04784679412841797,0.2553014755249023,XArbitraryZVertical,-0.05535294639909885,0.03911627388647217,0.01074217170058225,0.9976424700734725,-0.2253811657428741,-0.1525316089391708,-0.9622564315795898,0,0,0,-1,-1,2026-05-26T14:10:01.685+02:00,1475,1.083488,0,0,1181.784,0,0,2026-05-26T15:38:17.271+02:00,801496031.2906098,0,0.8600006,102.2521,0
2026-05-26T15:47:12.570+02:00,1779803231.9995,53.23610689430242,10.40155554542704,22.91459,0,0.188298,234.5376105425829,180,16.64657635503533,2.748902415971013,-9999,3262.880458875,-0.257781982421875,-0.2227630615234375,-0.6620025634765625,3262.870384375,0.02582383688730803,0.07941558606841119,-0.1169168454802899,-0.7537046670913696,-0.03674082085490227,-0.10809126496315,-0.0132477879524231,-0.03781786561012268,0.2783346176147461,XArbitraryZVertical,-0.05888589367416982,0.03887248069035405,0.01056021392817377,0.9974516545289225,-0.2256438136100769,-0.1458826810121536,-0.9632253646850586,0,0,0,-1,-1,2026-05-26T14:10:01.685+02:00,1475,1.083488,0,0,1181.784,0,0,2026-05-26T15:38:17.271+02:00,801496031.2906098,0,0.8600006,102.2521,0
2026-05-26T15:47:12.580+02:00,1779803231.9995,53.23610689430242,10.40155554542704,22.91459,0,0.188298,234.5376105425829,180,16.64657635503533,2.748902415971013,-9999,3262.890534875,-0.2659149169921875,-0.26068115234375,-0.6483917236328125,3262.880458875,0.02498387480895239,0.07896308951284794,-0.1252741199570865,-0.8989457488059998,-0.03411254659295082,-0.1823567003011703,-0.02696125209331512,-0.06915898621082306,0.2942001223564148,XArbitraryZVertical,-0.06303454807182102,0.03860949577594127,0.009986844343333844,0.9972141291897647,-0.2257700711488724,-0.1382537186145782,-0.9643203616142273,0,0,0,-1,-1,2026-05-26T14:10:01.685+02:00,1475,1.083488,0,0,1181.784,0,0,2026-05-26T15:38:17.271+02:00,801496031.2906098,0,0.8600006,102.2521,0
2026-05-26T15:47:12.590+02:00,1779803231.9995,53.23610689430242,10.40155554542704,22.91459,0,0.188298,234.5376105425829,180,16.64657635503533,2.748902415971013,-9999,3262.900609875,-0.2645263671875,-0.2989654541015625,-0.6123199462890625,3262.890534875,0.02330755177705935,0.07785814654428647,-0.1368061767975871,-1.453968286514282,-0.165837287902832,-0.3596433401107788,-0.03857775032520294,-0.1198929995298386,0.314005970954895,XArbitraryZVertical,-0.0687458245315816,0.03802967962248077,0.008957511006239992,0.9968688060228531,-0.2262843251228333,-0.1278639435768127,-0.9656325578689575,0,0,0,-1,-1,2026-05-26T14:10:01.685+02:00,1475,1.083488,0,0,1181.784,0,0,2026-05-26T15:38:17.271+02:00,801496031.2906098,0,0.8600006,102.2521,0
2026-05-26T15:47:12.600+02:00,1779803231.9995,53.23610689430242,10.40155554542704,22.91459,0,0.188298,234.5376105425829,180,16.64657635503533,2.748902415971013,-9999,3262.910685875,-0.272216796875,-0.396728515625,-0.5807342529296875,3262.900609875,0.01981108166920951,0.07530254752987418,-0.1554139367413424,-2.048967361450195,-0.1590715199708939,-0.5095348954200745,-0.03561082482337952,-0.1684914529323578,0.3332760334014893,XArbitraryZVertical,-0.07794170462788251,0.03675854895820927,0.006946499871882525,0.9962557759007504,-0.227679580450058,-0.1112936958670616,-0.9673550128936768,0,0,0,-1,-1,2026-05-26T14:10:01.685+02:00,1475,1.083488,0,0,1181.784,0,0,2026-05-26T15:38:17.271+02:00,801496031.2906098,0,0.8600006,102.2521,0
2026-05-26T15:47:12.610+02:00,1779803231.9995,53.23610689430242,10.40155554542704,22.91459,0,0.188298,234.5376105425829,180,16.64657635503533,2.748902415971013,-9999,3262.920761875,-0.2024078369140625,-0.3168792724609375,-0.66473388671875,3262.910685875,0.0179638259981162,0.07328552810036941,-0.1766659964709491,-2.12718677520752,-0.174754872918129,-0.236325740814209,-0.04581834375858307,-0.2659108340740204,0.3928837180137634,XArbitraryZVertical,-0.08848315445394159,0.03569843461880152,0.005709064232519417,0.9954214254147542,-0.2289924472570419,-0.09167888015508652,-0.9691013693809509,0,0,0,-1,-1,2026-05-26T14:10:01.685+02:00,1475,1.083488,0,0,1181.784,0,0,2026-05-26T15:38:17.271+02:00,801496031.2906098,0,0.8600006,102.2521,0
2026-05-26T15:47:12.620+02:00,1779803231.9995,53.23610689430242,10.40155554542704,22.91459,0,0.188298,234.5376105425829,180,16.64657635503533,2.748902415971013,-9999,3262.930836875,-0.196533203125,-0.103973388671875,-0.6337738037109375,3262.920761875,0.01730889297436858,0.07109266581159077,-0.1994446716959177,-2.360447406768799,-0.3249230682849884,-0.275848925113678,-0.001041963696479797,-0.3162286877632141,0.3354967832565308,XArbitraryZVertical,-0.09979655646844766,0.0344999041161704,0.005067889167448042,0.9943966599797112,-0.2308153361082077,-0.07021538913249969,-0.9704607725143433,0,0,0,-1,-1,2026-05-26T14:10:01.685+02:00,1475,1.083488,0,0,1181.784,0,0,2026-05-26T15:38:17.271+02:00,801496031.2906098,0,0.8600006,102.2521,0
2026-05-26T15:47:12.630+02:00,1779803231.9995,53.23610689430242,10.40155554542704,22.91459,0,0.188298,234.5376105425829,180,16.64657635503533,2.748902415971013,-9999,3262.940912875,-0.26922607421875,-0.1270751953125,-0.6718597412109375,3262.930836875,0.01509243725161095,0.06781778398680967,-0.2214944243013581,-2.033759117126465,-0.2143390476703644,-0.4017336070537567,0.04847829043865204,-0.1106742843985558,0.3125200867652893,XArbitraryZVertical,-0.1107085572706982,0.03286021486044619,0.003748787589563537,0.993302419744248,-0.233323261141777,-0.04986342415213585,-0.9711199402809143,0,0,0,-1,-1,2026-05-26T14:10:01.685+02:00,1475,1.083488,0,0,1181.784,0,0,2026-05-26T15:38:17.271+02:00,801496031.2906098,0,0.8600006,102.2521,0
2026-05-26T15:47:12.640+02:00,1779803231.9995,53.23610689430242,10.40155554542704,22.91459,0,0.188298,234.5376105425829,180,16.64657635503533,2.748902415971013,-9999,3262.950987875,-0.2942657470703125,-0.08349609375,-0.651947021484375,3262.940912875,0.01273602652194499,0.06514570457084842,-0.2428041937902609,-2.145313262939453,-0.2026592195034027,-0.3346985876560211,-0.005524754524230957,-0.07853856682777405,0.3296968936920166,XArbitraryZVertical,-0.1212432771287898,0.03155596097400611,0.00237381880875213,0.9921182029724845,-0.2352436929941177,-0.03022607043385506,-0.9714663028717041,0,0,0,-1,-1,2026-05-26T14:10:01.685+02:00,1475,1.083488,0,0,1181.784,0,0,2026-05-26T15:38:17.271+02:00,801496031.2906098,0,0.8600006,102.2521,0
2026-05-26T15:47:12.650+02:00,1779803231.9995,53.23610689430242,10.40155554542704,22.91459,0,0.188298,234.5376105425829,180,16.64657635503533,2.748902415971013,-9999,3262.961063875,-0.286407470703125,-0.0912628173828125,-0.6347503662109375,3262.950987875,0.0107554411727975,0.06276229618952342,-0.2642038921074751,-2.079709529876709,-0.1754137575626373,-0.3180301189422607,-0.055241659283638,-0.09830039739608765,0.2939921617507935,XArbitraryZVertical,-0.1318185700211068,0.03039418508932754,0.001195489427493993,0.9908070588548724,-0.2370099276304245,-0.01037269271910191,-0.9714518785476685,0,0,0,-1,-1,2026-05-26T14:10:01.685+02:00,1475,1.083488,0,0,1181.784,0,0,2026-05-26T15:38:17.271+02:00,801496031.2906098,0,0.8600006,102.2521,0
2026-05-26T15:47:12.661+02:00,1779803231.9995,53.23610689430242,10.40155554542704,22.91459,0,0.188298,234.5376105425829,180,16.64657635503533,2.748902415971013,-9999,3262.971138875,-0.2778778076171875,-0.0938873291015625,-0.6385040283203125,3262.961063875,0.008866182856599306,0.06055793481000907,-0.2858661677072973,-2.194232225418091,-0.13390251994133,-0.3138991594314575,-0.05100598931312561,-0.08626206964254379,0.3428517580032349,XArbitraryZVertical,-0.1425130430003893,0.02933413347486927,7.34155937005367e-05,0.9893581488573268,-0.2386516183614731,0.009769771248102188,-0.9710561037063599,0,0,0,-1,-1,2026-05-26T14:10:01.685+02:00,1475,1.083488,0,0,1181.784,0,0,2026-05-26T15:38:17.271+02:00,801496031.2906098,0,0.8600006,102.2521,0
2026-05-26T15:47:12.670+02:00,1779803231.9995,53.23610689430242,10.40155554542704,22.91459,0,0.188298,234.5376105425829,180,16.64657635503533,2.748902415971013,-9999,3262.981214875,-0.2658843994140625,-0.0926513671875,-0.612060546875,3262.971138875,0.006796128347510593,0.05854316995099185,-0.3088392840858621,-2.373857259750366,-0.1576973348855972,-0.3490425050258636,-0.04056805372238159,-0.1329679936170578,0.3271251916885376,XArbitraryZVertical,-0.1538381635516634,0.02839656353647474,-0.001145310364921448,0.9876872867294892,-0.2400868535041809,0.03111558593809605,-0.9702526330947876,0,0,0,-1,-1,2026-05-26T14:10:01.685+02:00,1475,1.083488,0,0,1181.784,0,0,2026-05-26T15:38:17.271+02:00,801496031.2906098,0,0.8600006,102.2521,0
2026-05-26T15:47:12.680+02:00,1779803231.9995,53.23610689430242,10.40155554542704,22.91459,0,0.188298,234.5376105425829,180,16.64657635503533,2.748902415971013,-9999,3262.991290875,-0.2604522705078125,-0.12823486328125,-0.600372314453125,3262.981214875,0.004444286217245358,0.05632996176600566,-0.3342031642472224,-2.604583263397217,-0.1154111325740814,-0.378974974155426,-0.03007380664348602,-0.1398152858018875,0.3448250889778137,XArbitraryZVertical,-0.1663203415111558,0.0273994799802362,-0.002493590080825606,0.985687849591791,-0.2416699826717377,0.05465598776936531,-0.9688180088996887,0,0,0,-1,-1,2026-05-26T14:10:01.685+02:00,1475,1.083488,0,0,1181.784,0,0,2026-05-26T15:38:17.271+02:00,801496031.2906098,0,0.8600006,102.2521,0
2026-05-26T15:47:12.691+02:00,1779803231.9995,53.23610689430242,10.40155554542704,22.91459,0,0.188298,234.5376105425829,180,16.64657635503533,2.748902415971013,-9999,3263.001365875,-0.283660888671875,-0.073822021484375,-0.6371917724609375,3262.991290875,0.001721318032656387,0.05440538581348305,-0.3623343883299005,-2.986764907836914,-0.08822079002857208,-0.4481953084468842,-0.01529777050018311,-0.2002744078636169,0.3711652755737305,XArbitraryZVertical,-0.1801340916471164,0.02659917190484055,-0.00405445490675593,0.9832739726087325,-0.2429114580154419,0.08070654422044754,-0.9666852951049805,0,0,0,-1,-1,2026-05-26T14:10:01.685+02:00,1475,1.083488,0,0,1181.784,0,0,2026-05-26T15:38:17.271+02:00,801496031.2906098,0,0.8600006,102.2521,0
2026-05-26T15:47:12.700+02:00,1779803231.9995,53.23610689430242,10.40155554542704,22.91459,0,0.188298,234.5376105425829,180,16.64657635503533,2.748902415971013,-9999,3263.011441875,-0.29437255859375,-0.0048675537109375,-0.6527099609375,3263.001365875,-0.001446514410672245,0.05247472845742943,-0.394409711514454,-3.31999659538269,-0.05576351657509804,-0.4601206183433533,-0.02918000519275665,-0.2162616103887558,0.3354952335357666,XArbitraryZVertical,-0.1958430505658374,0.0258675345869238,-0.005849068759072264,0.9802765134329755,-0.2440896481275558,0.1103350967168808,-0.9634554386138916,0,0,0,-1,-1,2026-05-26T14:10:01.685+02:00,1475,1.083488,0,0,1181.784,0,0,2026-05-26T15:38:17.271+02:00,801496031.2906098,0,0.8600006,102.2521,0
2026-05-26T15:47:12.711+02:00,1779803231.9995,53.23610689430242,10.40155554542704,22.91459,0,0.188298,234.5376105425829,180,16.64657635503533,2.748902415971013,-9999,3263.021516875,-0.291290283203125,0.047210693359375,-0.6699981689453125,3263.011441875,-0.004626513645091805,0.05070349711001457,-0.4295198140366477,-3.628965377807617,-0.04279152303934097,-0.4816301465034485,-0.04897819459438324,-0.1668962389230728,0.3154217600822449,XArbitraryZVertical,-0.2129865209093832,0.02525946511418297,-0.007661578456211942,0.9766984907477566,-0.2451654970645905,0.1427415758371353,-0.9589154124259949,0,0,0,-1,-1,2026-05-26T14:10:01.685+02:00,1475,1.083488,0,0,1181.784,0,0,2026-05-26T15:38:17.271+02:00,801496031.2906098,0,0.8600006,102.2521,0
2026-05-26T15:47:12.721+02:00,1779803231.9995,53.23610689430242,10.40155554542704,22.91459,0,0.188298,234.5376105425829,180,16.64657635503533,2.748902415971013,-9999,3263.031592875,-0.3265380859375,0.1139984130859375,-0.64178466796875,3263.021516875,-0.008017417530974427,0.04905230197491151,-0.4681995471666479,-4.000808238983154,0.01026397198438644,-0.4972390830516815,-0.04341423511505127,-0.1539483517408371,0.2833060026168823,XArbitraryZVertical,-0.2318001520090909,0.02478418887072615,-0.0095868337121641,0.9724004014856543,-0.2461365312337875,0.1783013641834259,-0.95269376039505,0,0,0,-1,-1,2026-05-26T14:10:01.685+02:00,1475,1.083488,0,0,1181.784,0,0,2026-05-26T15:38:17.271+02:00,801496031.2906098,0,0.8600006,102.2521,0
2026-05-26T15:47:12.731+02:00,1779803231.9995,53.23610689430242,10.40155554542704,22.91459,0,0.188298,234.5376105425829,180,16.64657635503533,2.748902415971013,-9999,3263.041668875,-0.397796630859375,0.170562744140625,-0.634552001953125,3263.031592875,-0.0110547962591315,0.04871738600649503,-0.5101547455361488,-4.280649662017822,0.277266651391983,-0.4662473499774933,-0.06181198358535767,-0.1259389817714691,0.2897869944572449,XArbitraryZVertical,-0.2521112969657794,0.02496210001156583,-0.01149242851901396,0.9673079904075136,-0.2460340857505798,0.2167745381593704,-0.9447094798088074,0,0,0,-1,-1,2026-05-26T14:10:01.685+02:00,1475,1.083488,0,0,1181.784,0,0,2026-05-26T15:38:17.271+02:00,801496031.2906098,0,0.8600006,102.2521,0
2026-05-26T15:47:12.741+02:00,1779803231.9995,53.23610689430242,10.40155554542704,22.91459,0,0.188298,234.5376105425829,180,16.64657635503533,2.748902415971013,-9999,3263.051743875,-0.388336181640625,0.224761962890625,-0.6566314697265625,3263.041668875,-0.01538414278989571,0.05040311602154398,-0.5541843027308321,-4.386052131652832,0.4438585340976715,-0.6993133425712585,-0.1292646825313568,-0.1080753207206726,0.304040253162384,XArbitraryZVertical,-0.2732784961700986,0.02634051529485956,-0.01428943727160607,0.9614680419253686,-0.2437822073698044,0.2564975917339325,-0.935296356678009,0,0,0,-1,-1,2026-05-26T14:10:01.685+02:00,1475,1.083488,0,0,1181.784,0,0,2026-05-26T15:38:17.271+02:00,801496031.2906098,0,0.8600006,102.2521,0
2026-05-26T15:47:12.751+02:00,1779803231.9995,53.23610689430242,10.40155554542704,22.91459,0,0.188298,234.5376105425829,180,16.64657635503533,2.748902415971013,-9999,3263.061819875,-0.326446533203125,0.3079833984375,-0.654632568359375,3263.051743875,-0.02189255535955557,0.05176116012464695,-0.5987638058742293,-4.39504861831665,0.5257979035377502,-0.8274077177047729,-0.1643619388341904,-0.09154251217842102,0.2753266096115112,XArbitraryZVertical,-0.2945425927163436,0.02795238221752481,-0.01808730838892536,0.955058138241087,-0.2413540184497833,0.2957661151885986,-0.924267590045929,0,0,0,-1,-1,2026-05-26T14:10:01.685+02:00,1475,1.083488,0,0,1181.784,0,0,2026-05-26T15:38:17.271+02:00,801496031.2906098,0,0.8600006,102.2521,0
2026-05-26T15:47:12.761+02:00,1779803231.9995,53.23610689430242,10.40155554542704,22.91459,0,0.188298,234.5376105425829,180,16.64657635503533,2.748902415971013,-9999,3263.071894875,-0.306976318359375,0.3962554931640625,-0.6546478271484375,3263.061819875,-0.03012540390762348,0.05236500836239592,-0.6431243680711072,-4.302782535552979,0.5569648742675781,-0.9595999717712402,-0.1072315871715546,-0.06291654706001282,0.2538707256317139,XArbitraryZVertical,-0.3155307957890722,0.02959355046450063,-0.02255826560847724,0.94818542990327,-0.2392344623804092,0.3339583873748779,-0.9117228984832764,0,0,0,-1,-1,2026-05-26T14:10:01.685+02:00,1475,1.083488,0,0,1181.784,0,0,2026-05-26T15:38:17.271+02:00,801496031.2906098,0,0.8600006,102.2521,0
2026-05-26T15:47:12.771+02:00,1779803231.9995,53.23610689430242,10.40155554542704,22.91459,0,0.188298,234.5376105425829,180,16.64657635503533,2.748902415971013,-9999,3263.081970875,-0.314971923828125,0.4655609130859375,-0.6892852783203125,3263.071894875,-0.04056851951749278,0.05199005171796775,-0.6859519215293897,-4.106399059295654,0.6524820327758789,-1.110878944396973,-0.07228806614875793,-0.001582920551300049,0.2469007968902588,XArbitraryZVertical,-0.3356119626170989,0.03129188013030613,-0.02783421946144121,0.9410688699464617,-0.2374195754528046,0.3697927296161652,-0.898267924785614,0,0,0,-1,-1,2026-05-26T14:10:01.685+02:00,1475,1.083488,0,0,1181.784,0,0,2026-05-26T15:38:17.271+02:00,801496031.2906098,0,0.8600006,102.2521,0
2026-05-26T15:47:12.782+02:00,1779803231.9995,53.23610689430242,10.40155554542704,22.91459,0,0.188298,234.5376105425829,180,16.64657635503533,2.748902415971013,-9999,3263.092045875,-0.335784912109375,0.5527496337890625,-0.7051544189453125,3263.081970875,-0.05372475023864649,0.05065539020062727,-0.7271725362657512,-3.964560031890869,0.7829836010932922,-1.296283006668091,-0.07392551004886627,0.0338156521320343,0.2091495394706726,XArbitraryZVertical,-0.3547502830574477,0.03320969947569114,-0.03409827750462093,0.9337487002771221,-0.2356753349304199,0.4031655192375183,-0.8842594027519226,0,0,0,-1,-1,2026-05-26T14:10:01.685+02:00,1475,1.083488,0,0,1181.784,0,0,2026-05-26T15:38:17.271+02:00,801496031.2906098,0,0.8600006,102.2521,0
2026-05-26T15:47:12.791+02:00,1779803231.9995,53.23610689430242,10.40155554542704,22.91459,0,0.188298,234.5376105425829,180,16.64657635503533,2.748902415971013,-9999,3263.102121875,-0.3542938232421875,0.5963897705078125,-0.72052001953125,3263.092045875,-0.07018798803622914,0.04803533440801022,-0.7667180198752098,-3.759935855865479,0.9276936650276184,-1.477590441703796,-0.09296718239784241,0.08797389268875122,0.1668610572814941,XArbitraryZVertical,-0.372918201781224,0.03537845495595327,-0.04150769975240632,0.9262599214337908,-0.2340286672115326,0.4339987337589264,-0.8699859976768494,0,0,0,-1,-1,2026-05-26T14:10:01.685+02:00,1475,1.083488,0,0,1181.784,0,0,2026-05-26T15:38:17.271+02:00,801496031.2906098,0,0.8600006,102.2521,0
2026-05-26T15:47:12.801+02:00,1779803231.9995,53.23610689430242,10.40155554542704,22.91459,0,0.188298,234.5376105425829,180,16.64657635503533,2.748902415971013,-9999,3263.112197875,-0.3627471923828125,0.6056365966796875,-0.73968505859375,3263.102121875,-0.08995459465706238,0.0443714877423502,-0.8048786170203363,-3.693907022476196,1.133954882621765,-1.621566653251648,-0.1160640567541122,0.124656081199646,0.1448652148246765,XArbitraryZVertical,-0.390253797367733,0.03799668278660084,-0.0500397091784297,0.9185609784005754,-0.2321720272302628,0.4626699686050415,-0.8555890917778015,0,0,0,-1,-1,2026-05-26T14:10:01.685+02:00,1475,1.083488,0,0,1181.784,0,0,2026-05-26T15:38:17.271+02:00,801496031.2906098,0,0.8600006,102.2521,0
2026-05-26T15:47:12.812+02:00,1779803231.9995,53.23610689430242,10.40155554542704,22.91459,0,0.188298,234.5376105425829,180,16.64657635503533,2.748902415971013,-9999,3263.122272875,-0.36090087890625,0.5779266357421875,-0.766571044921875,3263.112197875,-0.1124598346994688,0.04055039695779133,-0.8415433244627346,-3.452894687652588,1.2370285987854,-1.743553876876831,-0.1319470703601837,0.1137731075286865,0.1063417196273804,XArbitraryZVertical,-0.406695511579089,0.04142728547430537,-0.05955567082880159,0.9106787065644953,-0.229426845908165,0.4893152415752411,-0.8413881063461304,0,0,0,-1,-1,2026-05-26T14:10:01.685+02:00,1475,1.083488,0,0,1181.784,0,0,2026-05-26T15:38:17.271+02:00,801496031.2906098,0,0.8600006,102.2521,0
2026-05-26T15:47:12.822+02:00,1779803231.9995,53.23610689430242,10.40155554542704,22.91459,0,0.188298,234.5376105425829,180,16.64657635503533,2.748902415971013,-9999,3263.132348875,-0.326141357421875,0.523468017578125,-0.716888427734375,3263.122272875,-0.13890452608046,0.03346215211370376,-0.8767543434874863,-3.409029960632324,1.340603470802307,-1.912335872650146,-0.1348043084144592,0.08323031663894653,0.06426066160202026,XArbitraryZVertical,-0.4223368565936673,0.04456442744173371,-0.06991004477197642,0.9026394867531978,-0.2279428839683533,0.513891875743866,-0.8270170092582703,0,0,0,-1,-1,2026-05-26T14:10:01.685+02:00,1475,1.083488,0,0,1181.784,0,0,2026-05-26T15:38:17.271+02:00,801496031.2906098,0,0.8600006,102.2521,0
2026-05-26T15:48:23.047+02:00,1779803301.999708,53.23611853183564,10.40155920201019,25.82626,0,0.3080157,-1,-1,4.029364438188564,2.711600461919145,-9999,3333.35876725,-0.9972686767578125,0.0406951904296875,-0.06951904296875,3333.34869125,-1.997223018993627,-1.932228474134174,-0.4889044965847367,1.37182891368866,-0.2144399732351303,1.744373917579651,0.01211243867874146,-0.2294807434082031,-0.04724055528640747,XArbitraryZVertical,0.7455848915066157,0.316538982334068,0.3559283242628901,-0.4660699232964903,-0.9565551280975342,0.2905463874340057,-0.02418587729334831,0,0,0,-1,-1,2026-05-26T14:10:01.685+02:00,1503,1.08362,0,0,1213.849,0,0,2026-05-26T15:48:07.946+02:00,801496100.9356341,0,0.7400007,102.255,0
2026-05-26T15:48:23.057+02:00,1779803301.999708,53.23611853183564,10.40155920201019,25.82626,0,0.3080157,-1,-1,4.029364438188564,2.711600461919145,-9999,3333.36884225,-1.0384521484375,0.0379180908203125,-0.0714874267578125,3333.35876725,-1.989952995285304,-1.930916881659172,-0.509702525231875,1.261946082115173,-0.2326637208461761,1.673076868057251,-0.02963757514953613,-0.2630479037761688,-0.04258847609162331,XArbitraryZVertical,0.7455471342488951,0.3129808163157624,0.3489817814381009,-0.4737237788434879,-0.9514721632003784,0.3066270053386688,-0.02609137631952763,0,0,0,-1,-1,2026-05-26T14:10:01.685+02:00,1503,1.08362,0,0,1213.849,0,0,2026-05-26T15:48:07.946+02:00,801496100.9356341,0,0.7400007,102.255,0
2026-05-26T15:48:23.068+02:00,1779803301.999708,53.23611853183564,10.40155920201019,25.82626,0,0.3080157,-1,-1,4.029364438188564,2.711600461919145,-9999,3333.37891825,-1.069168090820312,0.048492431640625,-0.0662384033203125,3333.36884225,-1.983521290010174,-1.930043437659768,-0.5294069843456427,1.150869607925415,-0.2431555092334747,1.599520683288574,-0.07750934362411499,-0.283668041229248,-0.04313444718718529,XArbitraryZVertical,0.7456105049904329,0.3094930133610729,0.3422922331622338,-0.4807441008611012,-0.9463552832603455,0.3219370245933533,-0.02771214582026005,0,0,0,-1,-1,2026-05-26T14:10:01.685+02:00,1503,1.08362,0,0,1213.849,0,0,2026-05-26T15:48:07.946+02:00,801496100.9356341,0,0.7400007,102.255,0
2026-05-26T15:48:23.078+02:00,1779803301.999708,53.23611853183564,10.40155920201019,25.82626,0,0.3080157,-1,-1,4.029364438188564,2.711600461919145,-9999,3333.38899325,-1.091094970703125,0.0703125,-0.0650787353515625,3333.37891825,-1.977892094439553,-1.929436304682296,-0.5480422158229045,1.036262631416321,-0.2288798987865448,1.531401991844177,-0.1178164482116699,-0.2939459383487701,-0.03859090059995651,XArbitraryZVertical,0.7457421412586209,0.3060497017718042,0.3359269218152131,-0.4871910795596265,-0.9412348866462708,0.336487352848053,-0.02920392528176308,0,0,0,-1,-1,2026-05-26T14:10:01.685+02:00,1503,1.08362,0,0,1213.849,0,0,2026-05-26T15:48:07.946+02:00,801496100.9356341,0,0.7400007,102.255,0
2026-05-26T15:48:23.088+02:00,1779803301.999708,53.23611853183564,10.40155920201019,25.82626,0,0.3080157,-1,-1,4.029364438188564,2.711600461919145,-9999,3333.39906925,-1.097915649414062,0.0992431640625,-0.0731353759765625,3333.38899325,-1.973237581629448,-1.929077751667343,-0.5656527393689527,0.9207714200019836,-0.2088830322027206,1.470445990562439,-0.1482096910476685,-0.2897627949714661,-0.03396660089492798,XArbitraryZVertical,0.7459693698919918,0.3025761751578599,0.329938502832174,-0.4930698821422112,-0.9361103177070618,0.3503706455230713,-0.03062393143773079,0,0,0,-1,-1,2026-05-26T14:10:01.685+02:00,1503,1.08362,0,0,1213.849,0,0,2026-05-26T15:48:07.946+02:00,801496100.9356341,0,0.7400007,102.255,0
2026-05-26T15:48:23.098+02:00,1779803301.999708,53.23611853183564,10.40155920201019,25.82626,0,0.3080157,-1,-1,4.029364438188564,2.711600461919145,-9999,3333.40914425,-1.086685180664062,0.12384033203125,-0.0780181884765625,3333.39906925,-1.969457244327593,-1.928934708601951,-0.5823723578772521,0.8267937898635864,-0.1907010972499847,1.420300006866455,-0.1666638851165771,-0.2762249708175659,-0.03717279434204102,XArbitraryZVertical,0.7462795044157639,0.2990682537564576,0.3242916587480791,-0.4984576538032811,-0.9309771060943604,0.363673061132431,-0.03199537098407745,0,0,0,-1,-1,2026-05-26T14:10:01.685+02:00,1503,1.08362,0,0,1213.849,0,0,2026-05-26T15:48:07.946+02:00,801496100.9356341,0,0.7400007,102.255,0
2026-05-26T15:48:23.108+02:00,1779803301.999708,53.23611853183564,10.40155920201019,25.82626,0,0.3080157,-1,-1,4.029364438188564,2.711600461919145,-9999,3333.41922025,-1.065017700195312,0.144561767578125,-0.0701446533203125,3333.40914425,-1.966451830910409,-1.929061241707788,-0.5983785631602914,0.7459641695022583,-0.1861071288585663,1.38334596157074,-0.1675568222999573,-0.2612076103687286,-0.04362213611602783,XArbitraryZVertical,0.7466758396816368,0.2955290177195419,0.3189027811128732,-0.5034269983831785,-0.9258117079734802,0.3765182197093964,-0.03326691687107086,0,0,0,-1,-1,2026-05-26T14:10:01.685+02:00,1503,1.08362,0,0,1213.849,0,0,2026-05-26T15:48:07.946+02:00,801496100.9356341,0,0.7400007,102.255,0
2026-05-26T15:48:23.118+02:00,1779803301.999708,53.23611853183564,10.40155920201019,25.82626,0,0.3080157,-1,-1,4.029364438188564,2.711600461919145,-9999,3333.42929625,-1.041976928710938,0.170562744140625,-0.0563507080078125,3333.41922025,-1.964143969292905,-1.929535342843752,-0.6137805886230318,0.6758801341056824,-0.1832141429185867,1.352932929992676,-0.1534443497657776,-0.2529291808605194,-0.04002285003662109,XArbitraryZVertical,0.7471637244149703,0.2919790949492142,0.3137013820941252,-0.5080215869628539,-0.9206064939498901,0.388976514339447,-0.03436379507184029,0,0,0,-1,-1,2026-05-26T14:10:01.685+02:00,1503,1.08362,0,0,1213.849,0,0,2026-05-26T15:48:07.946+02:00,801496100.9356341,0,0.7400007,102.255,0
2026-05-26T15:48:23.128+02:00,1779803301.999708,53.23611853183564,10.40155920201019,25.82626,0,0.3080157,-1,-1,4.029364438188564,2.711600461919145,-9999,3333.43937125,-1.027191162109375,0.2038421630859375,-0.0531768798828125,3333.42929625,-1.962409898426437,-1.930262481217905,-0.6287856427130692,0.6267500519752502,-0.1825494319200516,1.341173768043518,-0.1345530152320862,-0.2414126992225647,-0.02495860680937767,XArbitraryZVertical,0.7477183091906637,0.2883830623113703,0.3086386525506971,-0.5123422817245991,-0.9153125882148743,0.401187390089035,-0.0353747121989727,0,0,0,-1,-1,2026-05-26T14:10:01.685+02:00,1503,1.08362,0,0,1213.849,0,0,2026-05-26T15:48:07.946+02:00,801496100.9356341,0,0.7400007,102.255,0
2026-05-26T15:48:23.138+02:00,1779803301.999708,53.23611853183564,10.40155920201019,25.82626,0,0.3080157,-1,-1,4.029364438188564,2.711600461919145,-9999,3333.44944725,-1.017990112304688,0.22406005859375,-0.0511474609375,3333.43937125,-1.96107546175276,-1.93118100558119,-0.643587419764087,0.6036739945411682,-0.174541562795639,1.340381741523743,-0.1211193799972534,-0.2213371694087982,-0.01716762781143188,XArbitraryZVertical,0.7483117227545837,0.2847351514076948,0.3036417685510695,-0.5164853048008223,-0.9098864793777466,0.4132621586322784,-0.03634500876069069,0,0,0,-1,-1,2026-05-26T14:10:01.685+02:00,1503,1.08362,0,0,1213.849,0,0,2026-05-26T15:48:07.946+02:00,801496100.9356341,0,0.7400007,102.255,0
2026-05-26T15:48:23.149+02:00,1779803301.999708,53.23611853183564,10.40155920201019,25.82626,0,0.3080157,-1,-1,4.029364438188564,2.711600461919145,-9999,3333.45952225,-1.006317138671875,0.2255096435546875,-0.0446319580078125,3333.44944725,-1.959883830779244,-1.932154545248678,-0.6583578482769387,0.5985919833183289,-0.1775203049182892,1.343819856643677,-0.1174484491348267,-0.2060919404029846,-0.0140109620988369,XArbitraryZVertical,0.7488922784968272,0.2810463074281741,0.2986479345621606,-0.520559871970138,-0.9042952060699463,0.4252690672874451,-0.03736541420221329,0,0,0,-1,-1,2026-05-26T14:10:01.685+02:00,1503,1.08362,0,0,1213.849,0,0,2026-05-26T15:48:07.946+02:00,801496100.9356341,0,0.7400007,102.255,0
2026-05-26T15:48:23.159+02:00,1779803301.999708,53.23611853183564,10.40155920201019,25.82626,0,0.3080157,-1,-1,4.029364438188564,2.711600461919145,-9999,3333.46959825,-0.997467041015625,0.2229766845703125,-0.0325927734375,3333.45952225,-1.958823267807138,-1.933243669949277,-0.6731172907147994,0.5821690559387207,-0.1865241974592209,1.340241312980652,-0.1117483377456665,-0.2100148499011993,-0.009437978267669678,XArbitraryZVertical,0.7494670063431483,0.2773313297739416,0.2936268472836281,-0.5245662632516963,-0.8985360264778137,0.4372181594371796,-0.0383831188082695,0,0,0,-1,-1,2026-05-26T14:10:01.685+02:00,1503,1.08362,0,0,1213.849,0,0,2026-05-26T15:48:07.946+02:00,801496100.9356341,0,0.7400007,102.255,0
2026-05-26T15:48:23.169+02:00,1779803301.999708,53.23611853183564,10.40155920201019,25.82626,0,0.3080157,-1,-1,4.029364438188564,2.711600461919145,-9999,3333.47967325,-0.999908447265625,0.2178497314453125,-0.027923583984375,3333.46959825,-1.95790164591776,-1.9345192132914,-0.6877385029184659,0.5781236886978149,-0.1936026066541672,1.323943614959717,-0.1071373224258423,-0.2260424494743347,0.003125369548797607,XArbitraryZVertical,0.7500413435444856,0.2736446078460697,0.2885925338947136,-0.5284608466633932,-0.8926642537117004,0.4490038156509399,-0.03931926563382149,0,0,0,-1,-1,2026-05-26T14:10:01.685+02:00,1503,1.08362,0,0,1213.849,0,0,2026-05-26T15:48:07.946+02:00,801496100.9356341,0,0.7400007,102.255,0
2026-05-26T15:48:23.179+02:00,1779803302.999721,53.23611853183564,10.40155920201019,25.82626,0,0.3080157,-1,-1,4.029364438188564,2.711616906759503,-9999,3333.48974925,-0.99981689453125,0.2109832763671875,-0.021697998046875,3333.47967325,-1.956695143541198,-1.93565450539877,-0.7022006257751983,0.6129589080810547,-0.2017428129911423,1.297543168067932,-0.1118508577346802,-0.2403241693973541,0.01109236851334572,XArbitraryZVertical,0.7505100422739461,0.2700660193948378,0.2835625604110792,-0.5323449629504634,-0.8867451548576355,0.4604931771755219,-0.0403587706387043,0,0,0,-1,-1,2026-05-26T14:10:01.685+02:00,1503,1.08362,0,0,1213.849,0,0,2026-05-26T15:48:07.946+02:00,801496100.9356341,0,0.7400007,102.255,0
2026-05-26T15:48:23.189+02:00,1779803302.999721,53.23611853183564,10.40155920201019,25.82626,0,0.3080157,-1,-1,4.029364438188564,2.711616906759503,-9999,3333.49982525,-0.9941864013671875,0.2160797119140625,-0.0151214599609375,3333.48974925,-1.954793546569803,-1.936366514617711,-0.716608220962402,0.660456120967865,-0.207608699798584,1.276040434837341,-0.119405210018158,-0.259369432926178,0.01700300350785255,XArbitraryZVertical,0.7507858362075642,0.2666421123154011,0.2785013914772946,-0.5363389164328382,-0.880793035030365,0.4716648757457733,-0.04166126623749733,0,0,0,-1,-1,2026-05-26T14:10:01.685+02:00,1503,1.08362,0,0,1213.849,0,0,2026-05-26T15:48:07.946+02:00,801496100.9356341,0,0.7400007,102.255,0
2026-05-26T15:48:23.199+02:00,1779803302.999721,53.23611853183564,10.40155920201019,25.82626,0,0.3080157,-1,-1,4.029364438188564,2.711616906759503,-9999,3333.50990025,-0.9956207275390625,0.2312164306640625,-0.011962890625,3333.49982525,-1.952386637151386,-1.936809679142505,-0.730926924780481,0.6812064051628113,-0.2109142243862152,1.251754641532898,-0.1222169399261475,-0.2700690627098083,0.02517586946487427,XArbitraryZVertical,0.7509211161373212,0.2633517432820217,0.2734092186640709,-0.5403801014040984,-0.874807596206665,0.4825476408004761,-0.04312026500701904,0,0,0,-1,-1,2026-05-26T14:10:01.685+02:00,1503,1.08362,0,0,1213.849,0,0,2026-05-26T15:48:07.946+02:00,801496100.9356341,0,0.7400007,102.255,0
2026-05-26T15:48:23.210+02:00,1779803302.999721,53.23611853183564,10.40155920201019,25.82626,0,0.3080157,-1,-1,4.029364438188564,2.711616906759503,-9999,3333.51997625,-1.001968383789062,0.2331085205078125,-0.0192718505859375,3333.50990025,-1.94946250630045,-1.936859923113079,-0.745068337979217,0.7097530961036682,-0.2059487551450729,1.223483562469482,-0.1247739791870117,-0.2680522203445435,0.03195256367325783,XArbitraryZVertical,0.7509007570561829,0.2601909868507321,0.2683535296225155,-0.5444583555186912,-0.8688324093818665,0.4930734932422638,-0.04481574520468712,0,0,0,-1,-1,2026-05-26T14:10:01.685+02:00,1503,1.08362,0,0,1213.849,0,0,2026-05-26T15:48:07.946+02:00,801496100.9356341,0,0.7400007,102.255,0
2026-05-26T15:48:23.219+02:00,1779803302.999721,53.23611853183564,10.40155920201019,25.82626,0,0.3080157,-1,-1,4.029364438188564,2.711616906759503,-9999,3333.53005125,-1.002349853515625,0.2310638427734375,-0.0149688720703125,3333.51997625,-1.945870333502623,-1.936440160949936,-0.7591147995485448,0.7691380977630615,-0.2139086723327637,1.197716474533081,-0.1369581818580627,-0.2691450715065002,0.03040534257888794,XArbitraryZVertical,0.7507036844511841,0.2571686469618493,0.2632951151628788,-0.5486199576576829,-0.8628586530685425,0.5032758712768555,-0.04677804559469223,0,0,0,-1,-1,2026-05-26T14:10:01.685+02:00,1503,1.08362,0,0,1213.849,0,0,2026-05-26T15:48:07.946+02:00,801496100.9356341,0,0.7400007,102.255,0
2026-05-26T15:48:23.229+02:00,1779803302.999721,53.23611853183564,10.40155920201019,25.82626,0,0.3080157,-1,-1,4.029364438188564,2.711616906759503,-9999,3333.54012725,-1.009765625,0.2340087890625,-0.0193328857421875,3333.53005125,-1.941395823703756,-1.935452701925522,-0.7731749829237961,0.824313759803772,-0.2255333811044693,1.190326690673828,-0.1447623372077942,-0.2823591828346252,0.03147894889116287,XArbitraryZVertical,0.750299467845543,0.2543020409353601,0.2581746650736498,-0.5529257345009132,-0.8568702340126038,0.5131940245628357,-0.04904184117913246,0,0,0,-1,-1,2026-05-26T14:10:01.685+02:00,1503,1.08362,0,0,1213.849,0,0,2026-05-26T15:48:07.946+02:00,801496100.9356341,0,0.7400007,102.255,0
2026-05-26T15:48:23.239+02:00,1779803302.999721,53.23611853183564,10.40155920201019,25.82626,0,0.3080157,-1,-1,4.029364438188564,2.711616906759503,-9999,3333.55020225,-1.021331787109375,0.2411956787109375,-0.0214996337890625,3333.54012725,-1.936042284956095,-1.9338278734941,-0.7873792489836892,0.8518593907356262,-0.2139257192611694,1.182608127593994,-0.1553314328193665,-0.2903640270233154,0.03687333315610886,XArbitraryZVertical,0.7496903389108001,0.2515267600207897,0.2529739865834135,-0.5574072672296918,-0.8508026599884033,0.5229384899139404,-0.05167438089847565,0,0,0,-1,-1,2026-05-26T14:10:01.685+02:00,1503,1.08362,0,0,1213.849,0,0,2026-05-26T15:48:07.946+02:00,801496100.9356341,0,0.7400007,102.255,0
2026-05-26T15:48:23.249+02:00,1779803302.999721,53.23611853183564,10.40155920201019,25.82626,0,0.3080157,-1,-1,4.029364438188564,2.711616906759503,-9999,3333.56027825,-1.028976440429688,0.2486724853515625,-0.0062713623046875,3333.55020225,-1.93074846167697,-1.932074128054537,-0.801414297888309,0.8282000422477722,-0.2001241594552994,1.169436097145081,-0.1725956797599792,-0.2946186065673828,0.02946585789322853,XArbitraryZVertical,0.7490587953757328,0.2487244847951491,0.2478556067393748,-0.5617958465562249,-0.8446771502494812,0.532503068447113,-0.05441403016448021,0,0,0,-1,-1,2026-05-26T14:10:01.685+02:00,1503,1.08362,0,0,1213.849,0,0,2026-05-26T15:48:07.946+02:00,801496100.9356341,0,0.7400007,102.255,0
2026-05-26T15:48:23.259+02:00,1779803302.999721,53.23611853183564,10.40155920201019,25.82626,0,0.3080157,-1,-1,4.029364438188564,2.711616906759503,-9999,3333.57035425,-1.035354614257812,0.237030029296875,-0.0197296142578125,3333.56027825,-1.925020325417668,-1.929779712471164,-0.8153810605016291,0.862572968006134,-0.1811201125383377,1.160283327102661,-0.1882405877113342,-0.294121265411377,0.04732906818389893,XArbitraryZVertical,0.7482973836144519,0.2459325301383028,0.2428043568083906,-0.5662280139318394,-0.8385080099105835,0.5418476462364197,-0.05749144405126572,0,0,0,-1,-1,2026-05-26T14:10:01.685+02:00,1503,1.08362,0,0,1213.849,0,0,2026-05-26T15:48:07.946+02:00,801496100.9356341,0,0.7400007,102.255,0
2026-05-26T15:48:23.269+02:00,1779803302.999721,53.23611853183564,10.40155920201019,25.82626,0,0.3080157,-1,-1,4.029364438188564,2.711616906759503,-9999,3333.58042925,-1.031402587890625,0.24261474609375,-0.0166473388671875,3333.57035425,-1.919284030677508,-1.927240205754415,-0.8292599446796887,0.816223680973053,-0.1681473255157471,1.154203414916992,-0.2017779350280762,-0.3096230030059814,0.04717499390244484,XArbitraryZVertical,0.7474991795253054,0.2430782871980058,0.2378347178618088,-0.5706070713902451,-0.8322490453720093,0.5510627031326294,-0.06075532734394073,0,0,0,-1,-1,2026-05-26T14:10:01.685+02:00,1503,1.08362,0,0,1213.849,0,0,2026-05-26T15:48:07.946+02:00,801496100.9356341,0,0.7400007,102.255,0
2026-05-26T15:48:23.279+02:00,1779803302.999721,53.23611853183564,10.40155920201019,25.82626,0,0.3080157,-1,-1,4.029364438188564,2.711616906759503,-9999,3333.59050525,-1.021636962890625,0.228729248046875,-0.003387451171875,3333.58042925,-1.913209590363986,-1.924380214740901,-0.843049825328955,0.9175205230712891,-0.173103466629982,1.13813304901123,-0.2084689736366272,-0.3210885524749756,0.04198706150054932,XArbitraryZVertical,0.7466181869896981,0.2402625640335185,0.2328809514803185,-0.5749795964800671,-0.825954794883728,0.5600716471672058,-0.0641733855009079,0,0,0,-1,-1,2026-05-26T14:10:01.685+02:00,1503,1.08362,0,0,1213.849,0,0,2026-05-26T15:48:07.946+02:00,801496100.9356341,0,0.7400007,102.255,0
2026-05-26T15:48:23.289+02:00,1779803302.999721,53.23611853183564,10.40155920201019,25.82626,0,0.3080157,-1,-1,4.029364438188564,2.711616906759503,-9999,3333.60058025,-1.014801025390625,0.23114013671875,-0.0164642333984375,3333.59050525,-1.90434947065232,-1.919390424060142,-0.8572633737297314,1.129182457923889,-0.1746648699045181,1.12359881401062,-0.2061195969581604,-0.330871045589447,0.06241775304079056,XArbitraryZVertical,0.7451682343591473,0.2377115780300474,0.2277458233810055,-0.5799562086117329,-0.819667637348175,0.568709671497345,-0.06865862011909485,0,0,0,-1,-1,2026-05-26T14:10:01.685+02:00,1503,1.08362,0,0,1213.849,0,0,2026-05-26T15:48:07.946+02:00,801496100.9356341,0,0.7400007,102.255,0
2026-05-26T15:48:23.300+02:00,1779803302.999721,53.23611853183564,10.40155920201019,25.82626,0,0.3080157,-1,-1,4.029364438188564,2.711616906759503,-9999,3333.61065625,-1.015899658203125,0.301300048828125,-0.03173828125,3333.60058025,-1.892078043389251,-1.911711721303682,-0.8721109670916931,1.336450099945068,-0.1670511662960052,1.126735806465149,-0.2027445435523987,-0.3561708331108093,0.06549983471632004,XArbitraryZVertical,0.7430432357674657,0.2354052774007679,0.2223609486537376,-0.5856848433218513,-0.8133230209350586,0.5770265460014343,-0.07447206228971481,0,0,0,-1,-1,2026-05-26T14:10:01.685+02:00,1503,1.08362,0,0,1213.849,0,0,2026-05-26T15:48:07.946+02:00,801496100.9356341,0,0.7400007,102.255,0
2026-05-26T15:48:23.310+02:00,1779803302.999721,53.23611853183564,10.40155920201019,25.82626,0,0.3080157,-1,-1,4.029364438188564,2.711616906759503,-9999,3333.62073125,-1.016250610351562,0.32879638671875,-0.0155029296875,3333.61065625,-1.876702977651543,-1.901378763368147,-0.8875058857985152,1.487407684326172,-0.1490207612514496,1.128698945045471,-0.2083567380905151,-0.3108071684837341,0.05277365446090698,XArbitraryZVertical,0.7403169140324325,0.2332311944215094,0.2167916313904487,-0.5920603949447695,-0.8068715333938599,0.5850686430931091,-0.08156703412532806,0,0,0,-1,-1,2026-05-26T14:10:01.685+02:00,1503,1.08362,0,0,1213.849,0,0,2026-05-26T15:48:07.946+02:00,801496100.9356341,0,0.7400007,102.255,0
2026-05-26T15:48:23.320+02:00,1779803302.999721,53.23611853183564,10.40155920201019,25.82626,0,0.3080157,-1,-1,4.029364438188564,2.711616906759503,-9999,3333.63080725,-1.015762329101562,0.285064697265625,-0.000762939453125,3333.62073125,-1.859054009270965,-1.888810899130595,-0.9031732560714684,1.555840611457825,-0.1065867468714714,1.131500244140625,-0.2158445715904236,-0.2640267610549927,0.06476575881242752,XArbitraryZVertical,0.7371610417093363,0.2310570827594011,0.2111779907733619,-0.5988405389579913,-0.8002991676330566,0.5928535461425781,-0.08969862759113312,0,0,0,-1,-1,2026-05-26T14:10:01.685+02:00,1503,1.08362,0,0,1213.849,0,0,2026-05-26T15:48:07.946+02:00,801496100.9356341,0,0.7400007,102.255,0
2026-05-26T15:48:23.330+02:00,1779803302.999721,53.23611853183564,10.40155920201019,25.82626,0,0.3080157,-1,-1,4.029364438188564,2.711616906759503,-9999,3333.64088325,-1.019622802734375,0.2602691650390625,0.002105712890625,3333.63080725,-1.840611020778817,-1.87509341479956,-0.91878418733644,1.504819273948669,-0.07100691646337509,1.141361236572266,-0.2220473885536194,-0.2949663996696472,0.0956813171505928,XArbitraryZVertical,0.733880623626382,0.2287416982259983,0.205644372487772,-0.6056457451926082,-0.7935775518417358,0.6004777550697327,-0.0982905849814415,0,0,0,-1,-1,2026-05-26T14:10:01.685+02:00,1503,1.08362,0,0,1213.849,0,0,2026-05-26T15:48:07.946+02:00,801496100.9356341,0,0.7400007,102.255,0
2026-05-26T15:48:23.340+02:00,1779803302.999721,53.23611853183564,10.40155920201019,25.82626,0,0.3080157,-1,-1,4.029364438188564,2.711616906759503,-9999,3333.65095825,-1.019683837890625,0.2993316650390625,0.0101318359375,3333.64088325,-1.822465210377681,-1.860994820389287,-0.9341293053826049,1.463495016098022,-0.02160421200096607,1.151369094848633,-0.2325581908226013,-0.3465425968170166,0.1056373715400696,XArbitraryZVertical,0.7306862643277195,0.2261771219229253,0.200302986620794,-0.6122255805361988,-0.7866831421852112,0.6080171465873718,-0.1069802045822144,0,0,0,-1,-1,2026-05-26T14:10:01.685+02:00,1503,1.08362,0,0,1213.849,0,0,2026-05-26T15:48:07.946+02:00,801496100.9356341,0,0.7400007,102.255,0
2026-05-26T15:48:23.350+02:00,1779803302.999721,53.23611853183564,10.40155920201019,25.82626,0,0.3080157,-1,-1,4.029364438188564,2.711616906759503,-9999,3333.66103425,-1.022247314453125,0.351776123046875,-0.0101470947265625,3333.65095825,-1.803689820913338,-1.845730228480858,-0.9494700366214954,1.476311326026917,0.02369961887598038,1.174827933311462,-0.2403212189674377,-0.335040271282196,0.1266639232635498,XArbitraryZVertical,0.7274065934776319,0.2233758091055549,0.1950738409229813,-0.6188125609633733,-0.7795456647872925,0.6154814958572388,-0.1161506697535515,0,0,0,-1,-1,2026-05-26T14:10:01.685+02:00,1503,1.08362,0,0,1213.849,0,0,2026-05-26T15:48:07.946+02:00,801496100.9356341,0,0.7400007,102.255,0
2026-05-26T15:48:23.360+02:00,1779803302.999721,53.23611853183564,10.40155920201019,25.82626,0,0.3080157,-1,-1,4.029364438188564,2.711616906759503,-9999,3333.67110925,-1.019424438476562,0.3681488037109375,-0.012298583984375,3333.66103425,-1.784279397393497,-1.829348888710464,-0.9648725000326667,1.45834219455719,0.07339820265769958,1.200302720069885,-0.2491013407707214,-0.2887141704559326,0.123265728354454,XArbitraryZVertical,0.7240620033417685,0.2203231561829052,0.1899081949843779,-0.6254013128179267,-0.7721084952354431,0.6229274272918701,-0.1257377117872238,0,0,0,-1,-1,2026-05-26T14:10:01.685+02:00,1503,1.08362,0,0,1213.849,0,0,2026-05-26T15:48:07.946+02:00,801496100.9356341,0,0.7400007,102.255,0
2026-05-26T15:48:23.370+02:00,1779803302.999721,53.23611853183564,10.40155920201019,25.82626,0,0.3080157,-1,-1,4.029364438188564,2.711616906759503,-9999,3333.68118525,-1.0111083984375,0.3310699462890625,-0.0296478271484375,3333.67110925,-1.764115270206453,-1.811597764297707,-0.980198317901425,1.465273499488831,0.1305323243141174,1.199459314346313,-0.2575990557670593,-0.2610138654708862,0.1232994198799133,XArbitraryZVertical,0.7206272436217498,0.2170170065694458,0.1848981276375286,-0.6319910231846063,-0.7644193172454834,0.6302459836006165,-0.1358421742916107,0,0,0,-1,-1,2026-05-26T14:10:01.685+02:00,1503,1.08362,0,0,1213.849,0,0,2026-05-26T15:48:07.946+02:00,801496100.9356341,0,0.7400007,102.255,0
2026-05-26T15:48:23.380+02:00,1779803302.999721,53.23611853183564,10.40155920201019,25.82626,0,0.3080157,-1,-1,4.029364438188564,2.711616906759503,-9999,3333.69126025,-0.9855194091796875,0.31707763671875,-0.0382232666015625,3333.68118525,-1.742774971770281,-1.792261759399669,-0.995249742321623,1.484070181846619,0.1497795283794403,1.193350315093994,-0.2588468790054321,-0.290011465549469,0.1247040182352066,XArbitraryZVertical,0.7170476539327787,0.2135936245696968,0.1800435594135752,-0.6385957985322231,-0.7566254138946533,0.6372403502464294,-0.1464325338602066,0,0,0,-1,-1,2026-05-26T14:10:01.685+02:00,1503,1.08362,0,0,1213.849,0,0,2026-05-26T15:48:07.946+02:00,801496100.9356341,0,0.7400007,102.255,0
2026-05-26T15:48:23.391+02:00,1779803302.999721,53.23611853183564,10.40155920201019,25.82626,0,0.3080157,-1,-1,4.029364438188564,2.711616906759503,-9999,3333.70133625,-0.95343017578125,0.357574462890625,-0.0608978271484375,3333.69126025,-1.719080570506738,-1.770802939462774,-1.010311253273879,1.607626914978027,0.1344972401857376,1.215305089950562,-0.2483816742897034,-0.3296293616294861,0.1205197721719742,XArbitraryZVertical,0.7131812802756098,0.2101907911494526,0.1750482557384417,-0.6454070200471362,-0.7486732602119446,0.6439449787139893,-0.1575528383255005,0,0,0,-1,-1,2026-05-26T14:10:01.685+02:00,1503,1.08362,0,0,1213.849,0,0,2026-05-26T15:48:07.946+02:00,801496100.9356341,0,0.7400007,102.255,0
2026-05-26T15:48:23.400+02:00,1779803302.999721,53.23611853183564,10.40155920201019,25.82626,0,0.3080157,-1,-1,4.029364438188564,2.711616906759503,-9999,3333.71141225,-0.9460601806640625,0.4207611083984375,-0.075347900390625,3333.70133625,-1.693373034988984,-1.747609437222872,-1.025444729521256,1.551483511924744,0.1156372651457787,1.251119256019592,-0.2231332659721375,-0.3122455477714539,0.1196798086166382,XArbitraryZVertical,0.7091315656118837,0.2067655358901685,0.1698360587481571,-0.6523313132621157,-0.7404744625091553,0.6505023837089539,-0.1689504534006119,0,0,0,-1,-1,2026-05-26T14:10:01.685+02:00,1503,1.08362,0,0,1213.849,0,0,2026-05-26T15:48:07.946+02:00,801496100.9356341,0,0.7400007,102.255,0
2026-05-26T15:48:23.413+02:00,1779803302.999721,53.23611853183564,10.40155920201019,25.82626,0,0.3080157,-1,-1,4.029364438188564,2.711616906759503,-9999,3333.72148725,-0.953216552734375,0.4255828857421875,-0.072509765625,3333.71141225,-1.668118670403567,-1.72466117911182,-1.040506057222732,1.454779624938965,0.1280784904956818,1.285414338111877,-0.2145075798034668,-0.2591118216514587,0.1053173542022705,XArbitraryZVertical,0.7053348430109913,0.2031270049446366,0.1645477308104758,-0.6589129105784782,-0.7319340705871582,0.6572136282920837,-0.1798412948846817,0,0,0,-1,-1,2026-05-26T14:10:01.685+02:00,1503,1.08362,0,0,1213.849,0,0,2026-05-26T15:48:07.946+02:00,801496100.9356341,0,0.7400007,102.255,0
2026-05-26T15:48:23.420+02:00,1779803302.999721,53.23611853183564,10.40155920201019,25.82626,0,0.3080157,-1,-1,4.029364438188564,2.711616906759503,-9999,3333.73156325,-0.9644317626953125,0.3787689208984375,-0.068603515625,3333.72148725,-1.645240882217256,-1.703411239555188,-1.055335207049622,1.186104416847229,0.1595743596553802,1.318296670913696,-0.2260159850120544,-0.2290278673171997,0.1187662482261658,XArbitraryZVertical,0.7020885909885339,0.1991512162516787,0.1593827464565189,-0.6648363609886265,-0.7230501174926758,0.6642237305641174,-0.1897501945495605,0,0,0,-1,-1,2026-05-26T14:10:01.685+02:00,1503,1.08362,0,0,1213.849,0,0,2026-05-26T15:48:07.946+02:00,801496100.9356341,0,0.7400007,102.255,0
2026-05-26T15:48:23.431+02:00,1779803302.999721,53.23611853183564,10.40155920201019,25.82626,0,0.3080157,-1,-1,4.029364438188564,2.711616906759503,-9999,3333.74163825,-0.9703369140625,0.3534698486328125,-0.069671630859375,3333.73156325,-1.626265897849039,-1.684978631964557,-1.069929024718042,0.9882033467292786,0.1974865943193436,1.346363186836243,-0.2469483613967896,-0.2760246992111206,0.1250080019235611,XArbitraryZVertical,0.6996003923319121,0.1947155219546304,0.1545002251836847,-0.6699064347047518,-0.7137754559516907,0.6716849803924561,-0.1984027773141861,0,0,0,-1,-1,2026-05-26T14:10:01.685+02:00,1503,1.08362,0,0,1213.849,0,0,2026-05-26T15:48:07.946+02:00,801496100.9356341,0,0.7400007,102.255,0
2026-05-26T15:48:23.440+02:00,1779803302.999721,53.23611853183564,10.40155920201019,25.82626,0,0.3080157,-1,-1,4.029364438188564,2.711616906759503,-9999,3333.75171425,-0.96795654296875,0.3976287841796875,-0.0959625244140625,3333.74163825,-1.609588355849882,-1.668114275801742,-1.084433796182616,0.8680410385131836,0.224319264292717,1.367553949356079,-0.2648853063583374,-0.3216925859451294,0.1434991955757141,XArbitraryZVertical,0.6975861352566283,0.1899514133080515,0.1497907220749347,-0.674429132195826,-0.7041546106338501,0.6794195771217346,-0.2062891572713852,0,0,0,-1,-1,2026-05-26T14:10:01.685+02:00,1503,1.08362,0,0,1213.849,0,0,2026-05-26T15:48:07.946+02:00,801496100.9356341,0,0.7400007,102.255,0
2026-05-26T15:48:23.452+02:00,1779803302.999721,53.23611853183564,10.40155920201019,25.82626,0,0.3080157,-1,-1,4.029364438188564,2.711616906759503,-9999,3333.76178925,-0.9460296630859375,0.4838409423828125,-0.086029052734375,3333.75171425,-1.594226781930378,-1.65213902613032,-1.098987512154836,0.785756528377533,0.233564168214798,1.399469256401062,-0.2755229473114014,-0.3166470527648926,0.1234854459762573,XArbitraryZVertical,0.6958879034231436,0.1849451104909821,0.1451347166749437,-0.6785802358075556,-0.6941883563995361,0.6873592734336853,-0.2136344164609909,0,0,0,-1,-1,2026-05-26T14:10:01.685+02:00,1503,1.08362,0,0,1213.849,0,0,2026-05-26T15:48:07.946+02:00,801496100.9356341,0,0.7400007,102.255,0
2026-05-26T15:48:23.461+02:00,1779803302.999721,53.23611853183564,10.40155920201019,25.82626,0,0.3080157,-1,-1,4.029364438188564,2.711616906759503,-9999,3333.77186525,-0.91424560546875,0.511627197265625,-0.069976806640625,3333.76178925,-1.5786993952095,-1.635747526563897,-1.113777613830169,0.8070205450057983,0.2547296583652496,1.444713711738586,-0.2724108099937439,-0.2413743734359741,0.128284752368927,XArbitraryZVertical,0.6942790268525557,0.1797142618094867,0.140429079473467,-0.6826119112506149,-0.6837964653968811,0.6954300999641418,-0.2209056168794632,0,0,0,-1,-1,2026-05-26T14:10:01.685+02:00,1503,1.08362,0,0,1213.849,0,0,2026-05-26T15:48:07.946+02:00,801496100.9356341,0,0.7400007,102.255,0
2026-05-26T15:48:23.472+02:00,1779803302.999721,53.23611853183564,10.40155920201019,25.82626,0,0.3080157,-1,-1,4.029364438188564,2.711616906759503,-9999,3333.78194125,-0.876617431640625,0.486175537109375,-0.0743865966796875,3333.77186525,-1.561384641358911,-1.61759983231045,-1.128936508735094,0.8040383458137512,0.2447004318237305,1.487202405929565,-0.2539494633674622,-0.1919832825660706,0.1551642119884491,XArbitraryZVertical,0.6925442112835197,0.1743156783521831,0.1355368047946058,-0.6867506028317772,-0.6729304790496826,0.7035341858863831,-0.2284827530384064,0,0,0,-1,-1,2026-05-26T14:10:01.685+02:00,1503,1.08362,0,0,1213.849,0,0,2026-05-26T15:48:07.946+02:00,801496100.9356341,0,0.7400007,102.255,0
