loggingTime(txt),locationTimestamp_since1970(s),locationLatitude(WGS84),locationLongitude(WGS84),locationAltitude(m),locationSpeed(m/s),locationSpeedAccuracy(m/s),locationCourse(°),locationCourseAccuracy(°),locationVerticalAccuracy(m),locationHorizontalAccuracy(m),locationFloor(Z),accelerometerTimestamp_sinceReboot(s),accelerometerAccelerationX(G),accelerometerAccelerationY(G),accelerometerAccelerationZ(G),motionTimestamp_sinceReboot(s),motionYaw(rad),motionRoll(rad),motionPitch(rad),motionRotationRateX(rad/s),motionRotationRateY(rad/s),motionRotationRateZ(rad/s),motionUserAccelerationX(G),motionUserAccelerationY(G),motionUserAccelerationZ(G),motionAttitudeReferenceFrame(txt),motionQuaternionX(R),motionQuaternionY(R),motionQuaternionZ(R),motionQuaternionW(R),motionGravityX(G),motionGravityY(G),motionGravityZ(G),motionMagneticFieldX(µT),motionMagneticFieldY(µT),motionMagneticFieldZ(µT),motionHeading(°),motionMagneticFieldCalibrationAccuracy(Z),activityTimestamp_sinceReboot(s),activity(txt),activityActivityConfidence(Z),activityActivityStartDate(txt),pedometerStartDate(txt),pedometerNumberofSteps(N),pedometerAverageActivePace(s/m),pedometerCurrentPace(s/m),pedometerCurrentCadence(steps/s),pedometerDistance(m),pedometerFloorAscended(N),pedometerFloorDescended(N),pedometerEndDate(txt),altimeterTimestamp_sinceReboot(s),altimeterReset(bool),altimeterRelativeAltitude(m),altimeterPressure(kPa),batteryState(N),batteryLevel(R),label
2026-05-05T16:21:05.830+02:00,1777990865.00041,53.23571364400311,10.40164763108864,18.92398,0,0.3080157,-1,-1,4.029364438188564,4.748651530191761,-9999,1173.569692,0.1827392578125,-0.6760711669921875,-0.72723388671875,1173.564656,0.004662563951792565,-0.002256637388679129,-0.01013763050548716,-0.1130187511444092,0.0214576218277216,0.03391429036855698,0.05643506348133087,0.01350480318069458,-0.02278536558151245,XArbitraryZVertical,-0.005066146274895805,-0.001140117690506947,0.002336967685321309,0.9999837624951167,0.1308207809925079,-0.6833198070526123,-0.7183035016059875,0,0,0,-1,-1,1163.108449375,unknown,2,2026-05-05T16:20:55.364+02:00,2026-05-05T16:12:27.330+02:00,645,0.8168712,0,0,506.8798,0,0,2026-05-05T16:20:39.892+02:00,799683665.7676581,0,0.009999275,100.7644,1,0.75,0
2026-05-05T16:21:05.844+02:00,1777990865.00041,53.23571364400311,10.40164763108864,18.92398,0,0.3080157,-1,-1,4.029364438188564,4.748651530191761,-9999,1173.579766,0.17742919921875,-0.656890869140625,-0.723724365234375,1173.574729,0.00507346534379165,-0.002067149353308948,-0.01111539402725511,-0.07796968519687653,0.02070687711238861,0.04101374372839928,0.05499719083309174,0.001504242420196533,-0.01249879598617554,XArbitraryZVertical,-0.005555025848437899,-0.001047653531091493,0.00254243373631648,0.9999807619496057,0.1306717395782471,-0.6826717853546143,-0.7189465165138245,0,0,0,-1,-1,1163.108449375,unknown,2,2026-05-05T16:20:55.364+02:00,2026-05-05T16:12:27.330+02:00,645,0.8168712,0,0,506.8798,0,0,2026-05-05T16:20:39.892+02:00,799683665.7676581,0,0.009999275,100.7644,1,0.75,0
2026-05-05T16:21:05.850+02:00,1777990865.00041,53.23571364400311,10.40164763108864,18.92398,0,0.3080157,-1,-1,4.029364438188564,4.748651530191761,-9999,1173.589839,0.1824798583984375,-0.6517181396484375,-0.723846435546875,1173.584802,0.005525140101867237,-0.00188295863166522,-0.0116207806673599,-0.03206717595458031,0.01889858953654766,0.03992191702127457,0.04795995354652405,0.01619994640350342,-0.005784392356872559,XArbitraryZVertical,-0.005807732200881083,-0.0009575112120117596,0.002767989067598367,0.9999788175724684,0.1304915547370911,-0.6823680996894836,-0.7192674279212952,0,0,0,-1,-1,1163.108449375,unknown,2,2026-05-05T16:20:55.364+02:00,2026-05-05T16:12:27.330+02:00,645,0.8168712,0,0,506.8798,0,0,2026-05-05T16:20:39.892+02:00,799683665.7676581,0,0.009999275,100.7644,1,0.75,0
2026-05-05T16:21:05.860+02:00,1777990865.00041,53.23571364400311,10.40164763108864,18.92398,0,0.3080157,-1,-1,4.029364438188564,4.748651530191761,-9999,1173.599913,0.17822265625,-0.6434478759765625,-0.7241363525390625,1173.594876,0.00592280238195069,-0.001709333332111906,-0.01163674736399161,0.02046207897365093,0.02161581255495548,0.03777381032705307,0.04991030693054199,0.02991271018981934,-0.003644585609436035,XArbitraryZVertical,-0.005815782171685375,-0.0008718787453800828,0.002966318333075026,0.999978322180647,0.1303417682647705,-0.6824090480804443,-0.719255805015564,0,0,0,-1,-1,1163.108449375,unknown,2,2026-05-05T16:20:55.364+02:00,2026-05-05T16:12:27.330+02:00,645,0.8168712,0,0,506.8798,0,0,2026-05-05T16:20:39.892+02:00,799683665.7676581,0,0.009999275,100.7644,1,0.75,0
2026-05-05T16:21:05.870+02:00,1777990865.00041,53.23571364400311,10.40164763108864,18.92398,0,0.3080157,-1,-1,4.029364438188564,4.748651530191761,-9999,1173.609986,0.1763153076171875,-0.6473388671875,-0.7351226806640625,1173.604949,0.006354629504197945,-0.001519236338081554,-0.01133710635264809,0.03491159155964851,0.0217572282999754,0.0433170460164547,0.05084976553916931,0.03370964527130127,-0.004209399223327637,XArbitraryZVertical,-0.005666079124344313,-0.0007776127113813266,0.003181563364775926,0.9999785740386057,0.1301805078983307,-0.6826812028884888,-0.7190266847610474,0,0,0,-1,-1,1163.108449375,unknown,2,2026-05-05T16:20:55.364+02:00,2026-05-05T16:12:27.330+02:00,645,0.8168712,0,0,506.8798,0,0,2026-05-05T16:20:39.892+02:00,799683665.7676581,0,0.009999275,100.7644,1,0.75,0
2026-05-05T16:21:05.885+02:00,1777990865.00041,53.23571364400311,10.40164763108864,18.92398,0,0.3080157,-1,-1,4.029364438188564,4.748651530191761,-9999,1173.620059,0.1822509765625,-0.665985107421875,-0.7463836669921875,1173.615023,0.00685399164583317,-0.001302805797365325,-0.01102327882955878,0.02120297029614449,0.02760579623281956,0.05015790835022926,0.04514892399311066,0.04118764400482178,-0.009548068046569824,XArbitraryZVertical,-0.005509345355913474,-0.0006702773230967695,0.003430526404736362,0.9999787693734408,0.1299914568662643,-0.6829723119735718,-0.7187844514846802,0,0,0,-1,-1,1163.108449375,unknown,2,2026-05-05T16:20:55.364+02:00,2026-05-05T16:12:27.330+02:00,645,0.8168712,0,0,506.8798,0,0,2026-05-05T16:20:39.892+02:00,799683665.7676581,0,0.009999275,100.7644,1,0.75,0
2026-05-05T16:21:05.891+02:00,1777990865.00041,53.23571364400311,10.40164763108864,18.92398,0,0.3080157,-1,-1,4.029364438188564,4.748651530191761,-9999,1173.630133,0.182159423828125,-0.6782073974609375,-0.75714111328125,1173.625096,0.007440198570321825,-0.001033893342472392,-0.01096347303664041,-0.01243232842534781,0.03170306980609894,0.05733506008982658,0.04911427199840546,0.02711653709411621,-0.02205938100814819,XArbitraryZVertical,-0.005479747196678379,-0.0005373277411839044,0.003722867947336122,0.9999779381584968,0.1297797709703445,-0.6830918788909912,-0.7187090516090393,0,0,0,-1,-1,1163.108449375,unknown,2,2026-05-05T16:20:55.364+02:00,2026-05-05T16:12:27.330+02:00,645,0.8168712,0,0,506.8798,0,0,2026-05-05T16:20:39.892+02:00,799683665.7676581,0,0.009999275,100.7644,1,0.75,0
2026-05-05T16:21:05.901+02:00,1777990865.00041,53.23571364400311,10.40164763108864,18.92398,0,0.3080157,-1,-1,4.029364438188564,4.748651530191761,-9999,1173.640206,0.1761932373046875,-0.6772613525390625,-0.7579345703125,1173.63517,0.008023684714714126,-0.00069032191159575,-0.01122383338032277,-0.04699749499559402,0.03748452663421631,0.05391716212034225,0.05401611328125,0.009076416492462158,-0.03283566236495972,XArbitraryZVertical,-0.00561045669471944,-0.0003676666564938402,0.004013704930238388,0.9999761987954326,0.1296233981847763,-0.6829808354377747,-0.7188428044319153,0,0,0,-1,-1,1163.108449375,unknown,2,2026-05-05T16:20:55.364+02:00,2026-05-05T16:12:27.330+02:00,645,0.8168712,0,0,506.8798,0,0,2026-05-05T16:20:39.892+02:00,799683665.7676581,0,0.009999275,100.7644,1,0.75,0
2026-05-05T16:21:05.911+02:00,1777990865.00041,53.23571364400311,10.40164763108864,18.92398,0,0.3080157,-1,-1,4.029364438188564,4.748651530191761,-9999,1173.65028,0.17047119140625,-0.6743011474609375,-0.7534027099609375,1173.645243,0.008632196992015213,-0.0002885293069615515,-0.01178830453820222,-0.0659254863858223,0.04326438531279564,0.06303982436656952,0.05057735741138458,0.003714263439178467,-0.03958165645599365,XArbitraryZVertical,-0.00589344006009958,-0.0001697003008523139,0.004316860037149949,0.9999733814015098,0.1294915974140167,-0.682654082775116,-0.7191768884658813,0,0,0,-1,-1,1163.108449375,unknown,2,2026-05-05T16:20:55.364+02:00,2026-05-05T16:12:27.330+02:00,645,0.8168712,0,0,506.8798,0,0,2026-05-05T16:20:39.892+02:00,799683665.7676581,0,0.009999275,100.7644,1,0.75,0
2026-05-05T16:21:05.921+02:00,1777990865.00041,53.23571364400311,10.40164763108864,18.92398,0,0.3080157,-1,-1,4.029364438188564,4.748651530191761,-9999,1173.660353,0.1700897216796875,-0.6702117919921875,-0.739654541015625,1173.655316,0.009312299123182859,0.0001173831621153911,-0.01230358575766427,-0.03857935220003128,0.0384182296693325,0.06519778072834015,0.04372113943099976,0.006468236446380615,-0.03748095035552979,XArbitraryZVertical,-0.006151959943075054,3.004645389461739e-05,0.004655683035916174,0.9999703534782358,0.1293135285377502,-0.6823714971542358,-0.7194770574569702,0,0,0,-1,-1,1163.108449375,unknown,2,2026-05-05T16:20:55.364+02:00,2026-05-05T16:12:27.330+02:00,645,0.8168712,0,0,506.8798,0,0,2026-05-05T16:20:39.892+02:00,799683665.7676581,0,0.009999275,100.7644,1,0.75,0
2026-05-05T16:21:05.931+02:00,1777990865.00041,53.23571364400311,10.40164763108864,18.92398,0,0.3080157,-1,-1,4.029364438188564,4.748651530191761,-9999,1173.670426,0.18536376953125,-0.64849853515625,-0.722747802734375,1173.66539,0.01007030617531245,0.000427359284712371,-0.01244425048889065,0.001506124157458544,0.02743322215974331,0.07567352801561356,0.03976483643054962,0.008494138717651367,-0.02782589197158813,XArbitraryZVertical,-0.006223081428646574,0.0001823437676218972,0.005033704280246394,0.999968036614016,0.1290126293897629,-0.6823680400848389,-0.7195343375205994,0,0,0,-1,-1,1163.108449375,unknown,2,2026-05-05T16:20:55.364+02:00,2026-05-05T16:12:27.330+02:00,645,0.8168712,0,0,506.8798,0,0,2026-05-05T16:20:39.892+02:00,799683665.7676581,0,0.009999275,100.7644,1,0.75,0
2026-05-05T16:21:05.941+02:00,1777990865.00041,53.23571364400311,10.40164763108864,18.92398,0,0.3080157,-1,-1,4.029364438188564,4.748651530191761,-9999,1173.6805,0.199951171875,-0.6306304931640625,-0.7005767822265625,1173.675463,0.01081748342149591,0.0006007468100469979,-0.01219568408018033,0.04202265664935112,0.01107049360871315,0.06469011306762695,0.04632128775119781,0.02135735750198364,-0.01146060228347778,XArbitraryZVertical,-0.006099339165909315,0.0002673821293548141,0.005406782751906867,0.9999667820181111,0.1286207288503647,-0.6826427578926086,-0.7193438410758972,0,0,0,-1,-1,1163.108449375,unknown,2,2026-05-05T16:20:55.364+02:00,2026-05-05T16:12:27.330+02:00,645,0.8168712,0,0,506.8798,0,0,2026-05-05T16:20:39.892+02:00,799683665.7676581,0,0.009999275,100.7644,1,0.75,0
2026-05-05T16:21:05.951+02:00,1777990865.00041,53.23571364400311,10.40164763108864,18.92398,0,0.3080157,-1,-1,4.029364438188564,4.748651530191761,-9999,1173.690573,0.1929168701171875,-0.632415771484375,-0.6939849853515625,1173.685536,0.01154912281678699,0.0006020685279047742,-0.01158109339874123,0.06872174888849258,-0.005870938301086426,0.07444734126329422,0.06680019199848175,0.04603242874145508,0.006599307060241699,XArbitraryZVertical,-0.005792155480710562,0.0002675866879591288,0.005772688775930752,0.9999665883474538,0.1281155645847321,-0.6831784248352051,-0.7189253568649292,0,0,0,-1,-1,1163.108449375,unknown,2,2026-05-05T16:20:55.364+02:00,2026-05-05T16:12:27.330+02:00,645,0.8168712,0,0,506.8798,0,0,2026-05-05T16:20:39.892+02:00,799683665.7676581,0,0.009999275,100.7644,1,0.75,0
2026-05-05T16:21:05.961+02:00,1777990865.00041,53.23571364400311,10.40164763108864,18.92398,0,0.3080157,-1,-1,4.029364438188564,4.748651530191761,-9999,1173.700647,0.1890411376953125,-0.6510162353515625,-0.7034759521484375,1173.69561,0.01233357421467102,0.0005143336712302527,-0.0109399527343911,0.05176274105906487,-0.009893909096717834,0.07503669708967209,0.06998467445373535,0.05469566583633423,0.02457582950592041,XArbitraryZVertical,-0.005471430244504958,0.0002234262843705815,0.006165248318452483,0.9999660951051881,0.1275098323822021,-0.6837392449378967,-0.7184997797012329,0,0,0,-1,-1,1163.108449375,unknown,2,2026-05-05T16:20:55.364+02:00,2026-05-05T16:12:27.330+02:00,645,0.8168712,0,0,506.8798,0,0,2026-05-05T16:20:39.892+02:00,799683665.7676581,0,0.009999275,100.7644,1,0.75,0
2026-05-05T16:21:05.971+02:00,1777990865.00041,53.23571364400311,10.40164763108864,18.92398,0,0.3080157,-1,-1,4.029364438188564,4.748651530191761,-9999,1173.71072,0.178466796875,-0.6792755126953125,-0.7126617431640625,1173.705683,0.01313063929596676,0.0003846804634409183,-0.01054323791918936,0.02256512269377708,-0.01211258955299854,0.07905114442110062,0.06345757842063904,0.04534667730331421,0.01921069622039795,XArbitraryZVertical,-0.005272743288538114,0.0001577239538930026,0.006564166854016503,0.9999645976582713,0.1268652975559235,-0.6841253042221069,-0.7182463407516479,0,0,0,-1,-1,1163.108449375,unknown,2,2026-05-05T16:20:55.364+02:00,2026-05-05T16:12:27.330+02:00,645,0.8168712,0,0,506.8798,0,0,2026-05-05T16:20:39.892+02:00,799683665.7676581,0,0.009999275,100.7644,1,0.75,0
2026-05-05T16:21:05.981+02:00,1777990865.00041,53.23571364400311,10.40164763108864,18.92398,0,0.3080157,-1,-1,4.029364438188564,4.748651530191761,-9999,1173.720793,0.16436767578125,-0.6814727783203125,-0.7296295166015625,1173.715757,0.01399318374012917,0.0002920763607698649,-0.01043044657848217,-0.003808426903560758,-0.005066131241619587,0.08582276105880737,0.05931420624256134,0.01656019687652588,0.01128822565078735,XArbitraryZVertical,-0.00521609305798497,0.0001095442896520854,0.006995677114824554,0.9999620413014516,0.1262021511793137,-0.6843153238296509,-0.7181821465492249,0,0,0,-1,-1,1163.108449375,unknown,2,2026-05-05T16:20:55.364+02:00,2026-05-05T16:12:27.330+02:00,645,0.8168712,0,0,506.8798,0,0,2026-05-05T16:20:39.892+02:00,799683665.7676581,0,0.009999275,100.7644,1,0.75,0
2026-05-05T16:21:05.991+02:00,1777990865.00041,53.23571364400311,10.40164763108864,18.92398,0,0.3080157,-1,-1,4.029364438188564,4.748651530191761,-9999,1173.730867,0.164154052734375,-0.6829376220703125,-0.740509033203125,1173.72583,0.01491576668250216,0.0002674438443679491,-0.01058668758434285,-0.02820282243192196,0.001162469852715731,0.09065014123916626,0.04468084871768951,0.001473009586334229,-0.001646637916564941,XArbitraryZVertical,-0.00529416858247115,9.423973838217504e-05,0.00745700114749161,0.9999582707346882,0.1255462020635605,-0.684319019317627,-0.7182936072349548,0,0,0,-1,-1,1163.108449375,unknown,2,2026-05-05T16:20:55.364+02:00,2026-05-05T16:12:27.330+02:00,645,0.8168712,0,0,506.8798,0,0,2026-05-05T16:20:39.892+02:00,799683665.7676581,0,0.009999275,100.7644,1,0.75,0
2026-05-05T16:21:06.001+02:00,1777990865.00041,53.23571364400311,10.40164763108864,18.92398,0,0.3080157,-1,-1,4.029364438188564,4.748651530191761,-9999,1173.74094,0.158111572265625,-0.67559814453125,-0.7342071533203125,1173.735904,0.01583219466049052,0.000327951475836267,-0.01088248954427063,-0.03711508959531784,0.01608762331306934,0.0865294337272644,0.03796247392892838,0.003297626972198486,-0.0192267894744873,XArbitraryZVertical,-0.005442344992744876,0.0001208954094341844,0.007915004601131505,0.9999539294061455,0.1249556168913841,-0.6842210292816162,-0.7184898853302002,0,0,0,-1,-1,1163.108449375,unknown,2,2026-05-05T16:20:55.364+02:00,2026-05-05T16:12:27.330+02:00,645,0.8168712,0,0,506.8798,0,0,2026-05-05T16:20:39.892+02:00,799683665.7676581,0,0.009999275,100.7644,1,0.75,0
2026-05-05T16:21:06.011+02:00,1777990865.00041,53.23571364400311,10.40164763108864,18.92398,0,0.3080157,-1,-1,4.029364438188564,4.748651530191761,-9999,1173.751014,0.157928466796875,-0.66766357421875,-0.7280120849609375,1173.745977,0.01674444188779094,0.0004696102383925029,-0.01115443876563186,-0.01832595653831959,0.01490411534905434,0.08765481412410736,0.03792736679315567,0.003612339496612549,-0.01933157444000244,XArbitraryZVertical,-0.005578960422706003,0.0001881003083920668,0.00837068286576687,0.9999494232871085,0.1244261488318443,-0.68413907289505,-0.7186597585678101,0,0,0,-1,-1,1163.108449375,unknown,2,2026-05-05T16:20:55.364+02:00,2026-05-05T16:12:27.330+02:00,645,0.8168712,0,0,506.8798,0,0,2026-05-05T16:20:39.892+02:00,799683665.7676581,0,0.009999275,100.7644,1,0.75,0
2026-05-05T16:21:06.022+02:00,1777990865.00041,53.23571364400311,10.40164763108864,18.92398,0,0.3080157,-1,-1,4.029364438188564,4.748651530191761,-9999,1173.761087,0.173126220703125,-0.6586151123046875,-0.718414306640625,1173.75605,0.0176292761847701,0.0005341307529458889,-0.01109083275201179,0.02222892642021179,0.002404035534709692,0.07868928462266922,0.03138286620378494,0.01231259107589722,-0.01303398609161377,XArbitraryZVertical,-0.005547525722675807,0.0002181709253498858,0.008812906193235532,0.999945865382965,0.1238600537180901,-0.6842944025993347,-0.7186097502708435,0,0,0,-1,-1,1163.108449375,unknown,2,2026-05-05T16:20:55.364+02:00,2026-05-05T16:12:27.330+02:00,645,0.8168712,0,0,506.8798,0,0,2026-05-05T16:20:39.892+02:00,799683665.7676581,0,0.009999275,100.7644,1,0.75,0
2026-05-05T16:21:06.032+02:00,1777990865.00041,53.23571364400311,10.40164763108864,18.92398,0,0.3080157,-1,-1,4.029364438188564,4.748651530191761,-9999,1173.77116,0.1739959716796875,-0.649749755859375,-0.7057342529296875,1173.766124,0.01837549390497357,0.0005495037867640631,-0.01075815691342897,0.03403424099087715,0.001954760402441025,0.06741206347942352,0.04339365661144257,0.02044081687927246,-0.004580020904541016,XArbitraryZVertical,-0.005381349022983632,0.0002253156299729769,0.009186005668243073,0.9999434016284597,0.1233543902635574,-0.6846253871917725,-0.718381404876709,0,0,0,-1,-1,1163.108449375,unknown,2,2026-05-05T16:20:55.364+02:00,2026-05-05T16:12:27.330+02:00,645,0.8168712,0,0,506.8798,0,0,2026-05-05T16:20:39.892+02:00,799683665.7676581,0,0.009999275,100.7644,1,0.75,0
2026-05-05T16:21:06.042+02:00,1777990865.00041,53.23571364400311,10.40164763108864,18.92398,0,0.3080157,-1,-1,4.029364438188564,4.748651530191761,-9999,1173.781234,0.1747283935546875,-0.66424560546875,-0.7052001953125,1173.776197,0.01901707600527106,0.0005600367946301167,-0.0103859737857344,0.04074354097247124,0.002871952950954437,0.05617965012788773,0.05153611302375793,0.03232258558273315,0.005266189575195312,XArbitraryZVertical,-0.005195390454348109,0.0002306251983989361,0.009506810927125242,0.9999414075355912,0.1229176223278046,-0.6849715113639832,-0.7181262969970703,0,0,0,-1,-1,1163.108449375,unknown,2,2026-05-05T16:20:55.364+02:00,2026-05-05T16:12:27.330+02:00,645,0.8168712,0,0,506.8798,0,0,2026-05-05T16:20:39.892+02:00,799683665.7676581,0,0.009999275,100.7644,1,0.75,0
2026-05-05T16:21:06.052+02:00,1777990865.00041,53.23571364400311,10.40164763108864,18.92398,0,0.3080157,-1,-1,4.029364438188564,4.748651530191761,-9999,1173.791307,0.1697998046875,-0.6796722412109375,-0.7157135009765625,1173.786271,0.0195783344294861,0.0005833570288884758,-0.01002053366091084,0.02946345694363117,0.006906642578542233,0.0515693873167038,0.05151141434907913,0.03161603212356567,0.01481002569198608,XArbitraryZVertical,-0.005012860220363412,0.000242615508157544,0.009787425136676972,0.9999396240708313,0.1225455924868584,-0.6853025555610657,-0.7178739905357361,0,0,0,-1,-1,1163.108449375,unknown,2,2026-05-05T16:20:55.364+02:00,2026-05-05T16:12:27.330+02:00,645,0.8168712,0,0,506.8798,0,0,2026-05-05T16:20:39.892+02:00,799683665.7676581,0,0.009999275,100.7644,1,0.75,0
2026-05-05T16:21:06.062+02:00,1777990865.00041,53.23571364400311,10.40164763108864,18.92398,0,0.3080157,-1,-1,4.029364438188564,4.748651530191761,-9999,1173.801381,0.16314697265625,-0.68731689453125,-0.7230377197265625,1173.796344,0.02014315995339898,0.0006803211376538138,-0.009899733340732885,-0.01140621211379766,0.01502582058310509,0.05669090896844864,0.05149734020233154,0.01175194978713989,0.006461381912231445,XArbitraryZVertical,-0.004953020898061121,0.0002902872111761897,0.01006960192055763,0.9999370076641928,0.122223973274231,-0.6854580044746399,-0.7177803516387939,0,0,0,-1,-1,1163.108449375,unknown,2,2026-05-05T16:20:55.364+02:00,2026-05-05T16:12:27.330+02:00,645,0.8168712,0,0,506.8798,0,0,2026-05-05T16:20:39.892+02:00,799683665.7676581,0,0.009999275,100.7644,1,0.75,0
2026-05-05T16:21:06.072+02:00,1777990866.000405,53.23571364400311,10.40164763108864,18.92398,0,0.3080157,-1,-1,4.029364438188564,4.748651530191761,-9999,1173.811454,0.1606903076171875,-0.6966094970703125,-0.7357025146484375,1173.806417,0.0207435662775359,0.0008782846427549539,-0.01020508217302112,-0.05236232653260231,0.03034778498113155,0.05623351037502289,0.04395837336778641,0.002221584320068359,0.0002388954162597656,XArbitraryZVertical,-0.005106798491561372,0.0003861917014718069,0.01036922042872609,0.9999331354148618,0.1219504326581955,-0.6853117346763611,-0.7179664969444275,0,0,0,-1,-1,1163.108449375,unknown,2,2026-05-05T16:20:55.364+02:00,2026-05-05T16:12:27.330+02:00,645,0.8168712,0,0,506.8798,0,0,2026-05-05T16:20:39.892+02:00,799683665.7676581,0,0.009999275,100.7644,1,0.75,0
2026-05-05T16:21:06.082+02:00,1777990866.000405,53.23571364400311,10.40164763108864,18.92398,0,0.3080157,-1,-1,4.029364438188564,4.748651530191761,-9999,1173.821527,0.1501617431640625,-0.6860809326171875,-0.7420501708984375,1173.816491,0.02125848744843644,0.001216039898675228,-0.01085146760960273,-0.07670042663812637,0.03984115272760391,0.04138132929801941,0.0408676415681839,-0.0084342360496521,-0.01119929552078247,XArbitraryZVertical,-0.005431861966030448,0.000550306525023191,0.01062558583693069,0.9999286956580945,0.121836818754673,-0.6849098801612854,-0.71836918592453,0,0,0,-1,-1,1163.108449375,unknown,2,2026-05-05T16:20:55.364+02:00,2026-05-05T16:12:27.330+02:00,645,0.8168712,0,0,506.8798,0,0,2026-05-05T16:20:39.892+02:00,799683665.7676581,0,0.009999275,100.7644,1,0.75,0
2026-05-05T16:21:06.092+02:00,1777990866.000405,53.23571364400311,10.40164763108864,18.92398,0,0.3080157,-1,-1,4.029364438188564,4.748651530191761,-9999,1173.831601,0.1529541015625,-0.6717681884765625,-0.746734619140625,1173.826564,0.02168861309105872,0.001659568627023672,-0.01163157076654912,-0.07698570191860199,0.05350769683718681,0.04330546408891678,0.03475784510374069,-0.008592069149017334,-0.02104836702346802,XArbitraryZVertical,-0.005824406714486105,0.0007666548464997569,0.01083908128812237,0.9999240032941843,0.1218583509325981,-0.6844010353088379,-0.718850314617157,0,0,0,-1,-1,1163.108449375,unknown,2,2026-05-05T16:20:55.364+02:00,2026-05-05T16:12:27.330+02:00,645,0.8168712,0,0,506.8798,0,0,2026-05-05T16:20:39.892+02:00,799683665.7676581,0,0.009999275,100.7644,1,0.75,0
2026-05-05T16:21:06.102+02:00,1777990866.000405,53.23571364400311,10.40164763108864,18.92398,0,0.3080157,-1,-1,4.029364438188564,4.748651530191761,-9999,1173.841674,0.171234130859375,-0.6606597900390625,-0.742523193359375,1173.836638,0.0221739704923875,0.002167002316046445,-0.01215745208270466,-0.03189438953995705,0.04854356497526169,0.0451667457818985,0.02627516537904739,0.005996048450469971,-0.02578449249267578,XArbitraryZVertical,-0.006090323382004028,0.001016021376016984,0.01107996027535666,0.9999196091893783,0.121887668967247,-0.6840813159942627,-0.7191495895385742,0,0,0,-1,-1,1163.108449375,unknown,2,2026-05-05T16:20:55.364+02:00,2026-05-05T16:12:27.330+02:00,645,0.8168712,0,0,506.8798,0,0,2026-05-05T16:20:39.892+02:00,799683665.7676581,0,0.009999275,100.7644,1,0.75,0
2026-05-05T16:21:06.113+02:00,1777990866.000405,53.23571364400311,10.40164763108864,18.92398,0,0.3080157,-1,-1,4.029364438188564,4.748651530191761,-9999,1173.851748,0.177398681640625,-0.63543701171875,-0.7299041748046875,1173.846711,0.02260256447810859,0.002621128941188305,-0.01220267208166265,0.0223228819668293,0.04485029727220535,0.03894719853997231,0.03993257880210876,0.01692503690719604,-0.02592968940734863,XArbitraryZVertical,-0.00611571345866377,0.001241504987156087,0.01129282538631858,0.9999168146465772,0.1219173967838287,-0.684100329875946,-0.7191265225410461,0,0,0,-1,-1,1163.108449375,unknown,2,2026-05-05T16:20:55.364+02:00,2026-05-05T16:12:27.330+02:00,645,0.8168712,0,0,506.8798,0,0,2026-05-05T16:20:39.892+02:00,799683665.7676581,0,0.009999275,100.7644,1,0.75,0
2026-05-05T16:21:06.123+02:00,1777990866.000405,53.23571364400311,10.40164763108864,18.92398,0,0.3080157,-1,-1,4.029364438188564,4.748651530191761,-9999,1173.861821,0.1652374267578125,-0.626373291015625,-0.7254638671875,1173.856784,0.02304108927165466,0.003056873092981403,-0.01189980756276063,0.03452974930405617,0.04171069711446762,0.03812747821211815,0.05602170526981354,0.03509414196014404,-0.01784199476242065,XArbitraryZVertical,-0.005967073975706162,0.001459763201413583,0.01151097783592557,0.9999149810140565,0.1219262927770615,-0.6843708157539368,-0.7188675999641418,0,0,0,-1,-1,1163.108449375,unknown,2,2026-05-05T16:20:55.364+02:00,2026-05-05T16:12:27.330+02:00,645,0.8168712,0,0,506.8798,0,0,2026-05-05T16:20:39.892+02:00,799683665.7676581,0,0.009999275,100.7644,1,0.75,0
2026-05-05T16:21:06.133+02:00,1777990866.000405,53.23571364400311,10.40164763108864,18.92398,0,0.3080157,-1,-1,4.029364438188564,4.748651530191761,-9999,1173.871894,0.173858642578125,-0.6462249755859375,-0.718292236328125,1173.866858,0.02353265715997236,0.003488348471249266,-0.01167193923896055,-0.0002986469480674714,0.04637761786580086,0.06419976055622101,0.04796555638313293,0.05765551328659058,-0.007092952728271484,XArbitraryZVertical,-0.0058560451292854,0.001675357005231356,0.01175566023394237,0.9999123826901852,0.1218952834606171,-0.6845933794975281,-0.7186608910560608,0,0,0,-1,-1,1163.108449375,unknown,2,2026-05-05T16:20:55.364+02:00,2026-05-05T16:12:27.330+02:00,645,0.8168712,0,0,506.8798,0,0,2026-05-05T16:20:39.892+02:00,799683665.7676581,0,0.009999275,100.7644,1,0.75,0
2026-05-05T16:21:06.143+02:00,1777990866.000405,53.23571364400311,10.40164763108864,18.92398,0,0.3080157,-1,-1,4.029364438188564,4.748651530191761,-9999,1173.881968,0.17303466796875,-0.6719207763671875,-0.7140655517578125,1173.876931,0.02414776837394681,0.003914602435085733,-0.01172129142545809,-0.03572028502821922,0.04471900314092636,0.05050498619675636,0.04694093763828278,0.05073529481887817,-0.004209458827972412,XArbitraryZVertical,-0.005883804737107923,0.001886365116734554,0.01206188968964616,0.9999082068064308,0.1217754855751991,-0.6846311688423157,-0.7186451554298401,0,0,0,-1,-1,1163.108449375,unknown,2,2026-05-05T16:20:55.364+02:00,2026-05-05T16:12:27.330+02:00,645,0.8168712,0,0,506.8798,0,0,2026-05-05T16:20:39.892+02:00,799683665.7676581,0,0.009999275,100.7644,1,0.75,0
2026-05-05T16:21:06.153+02:00,1777990866.000405,53.23571364400311,10.40164763108864,18.92398,0,0.3080157,-1,-1,4.029364438188564,4.748651530191761,-9999,1173.892041,0.16595458984375,-0.700225830078125,-0.711669921875,1173.887005,0.02466538068867188,0.004399434401688141,-0.01217696324115683,-0.06202976033091545,0.05392128974199295,0.04547706991434097,0.05311442166566849,0.02430033683776855,0.003552913665771484,XArbitraryZVertical,-0.006115092849706434,0.00212442236393358,0.01231872621141988,0.9999032695570168,0.121766559779644,-0.6843649744987488,-0.718900203704834,0,0,0,-1,-1,1163.108449375,unknown,2,2026-05-05T16:20:55.364+02:00,2026-05-05T16:12:27.330+02:00,645,0.8168712,0,0,506.8798,0,0,2026-05-05T16:20:39.892+02:00,799683665.7676581,0,0.009999275,100.7644,1,0.75,0
2026-05-05T16:21:06.163+02:00,1777990866.000405,53.23571364400311,10.40164763108864,18.92398,0,0.3080157,-1,-1,4.029364438188564,4.748651530191761,-9999,1173.902115,0.1627960205078125,-0.69024658203125,-0.711761474609375,1173.897078,0.02505325297667219,0.004931333341895411,-0.01282510186077392,-0.05917565152049065,0.05357268080115318,0.02977400831878185,0.04869572818279266,-0.003082454204559326,0.006801962852478027,XArbitraryZVertical,-0.006442868643564332,0.002385095040620623,0.01251019197348667,0.9998982584014587,0.121882289648056,-0.6839445233345032,-0.7192806601524353,0,0,0,-1,-1,1163.108449375,unknown,2,2026-05-05T16:20:55.364+02:00,2026-05-05T16:12:27.330+02:00,645,0.8168712,0,0,506.8798,0,0,2026-05-05T16:20:39.892+02:00,799683665.7676581,0,0.009999275,100.7644,1,0.75,0
2026-05-05T16:21:06.173+02:00,1777990866.000405,53.23571364400311,10.40164763108864,18.92398,0,0.3080157,-1,-1,4.029364438188564,4.748651530191761,-9999,1173.912188,0.175811767578125,-0.656982421875,-0.71917724609375,1173.907151,0.02533847680749623,0.005468112588876349,-0.0132115798290002,-0.02545870095491409,0.05567311495542526,0.02154896780848503,0.03991518914699554,-0.01844847202301025,0.007536411285400391,XArbitraryZVertical,-0.006639823248730067,0.002650086476036677,0.01265051580966868,0.9998944940965278,0.1220721080899239,-0.683699905872345,-0.7194809913635254,0,0,0,-1,-1,1163.108449375,unknown,2,2026-05-05T16:20:55.364+02:00,2026-05-05T16:12:27.330+02:00,645,0.8168712,0,0,506.8798,0,0,2026-05-05T16:20:39.892+02:00,799683665.7676581,0,0.009999275,100.7644,1,0.75,0
2026-05-05T16:21:06.183+02:00,1777990866.000405,53.23571364400311,10.40164763108864,18.92398,0,0.3080157,-1,-1,4.029364438188564,4.748651530191761,-9999,1173.922262,0.17681884765625,-0.6452484130859375,-0.72625732421875,1173.917225,0.02554902218874501,0.006027303177970695,-0.01341737607282628,-0.0247510988265276,0.05896078795194626,0.0129504194483161,0.04724159836769104,0.01130485534667969,0.004695475101470947,XArbitraryZVertical,-0.006746555285886659,0.002927636257637005,0.01275360136191804,0.9998917030160471,0.1223293244838715,-0.6835765838623047,-0.7195544838905334,0,0,0,-1,-1,1163.108449375,unknown,2,2026-05-05T16:20:55.364+02:00,2026-05-05T16:12:27.330+02:00,645,0.8168712,0,0,506.8798,0,0,2026-05-05T16:20:39.892+02:00,799683665.7676581,0,0.009999275,100.7644,1,0.75,0
2026-05-05T16:21:06.193+02:00,1777990866.000405,53.23571364400311,10.40164763108864,18.92398,0,0.3080157,-1,-1,4.029364438188564,4.748651530191761,-9999,1173.932335,0.1735992431640625,-0.6619720458984375,-0.7263641357421875,1173.927298,0.02574473988338131,0.006619767466538377,-0.01366071884451713,-0.02085793018341064,0.06057359650731087,0.01948142237961292,0.05563212931156158,0.03587180376052856,-0.00445634126663208,XArbitraryZVertical,-0.006872306714352723,0.003221606902854729,0.0128490378785966,0.9998886571066451,0.1226210296154022,-0.6834242343902588,-0.7196494340896606,0,0,0,-1,-1,1163.108449375,unknown,2,2026-05-05T16:20:55.364+02:00,2026-05-05T16:12:27.330+02:00,645,0.8168712,0,0,506.8798,0,0,2026-05-05T16:20:39.892+02:00,799683665.7676581,0,0.009999275,100.7644,1,0.75,0
2026-05-05T16:21:06.203+02:00,1777990866.000405,53.23571364400311,10.40164763108864,18.92398,0,0.3080157,-1,-1,4.029364438188564,4.748651530191761,-9999,1173.942408,0.1779022216796875,-0.66412353515625,-0.7162628173828125,1173.937372,0.02598319310225632,0.00718196405293432,-0.01376944204360685,-0.00446617417037487,0.05283445119857788,0.02217094972729683,0.05162340402603149,0.03186953067779541,-0.006784141063690186,XArbitraryZVertical,-0.006930691262847191,0.003501146422444195,0.01296611876150561,0.9998857959485673,0.1228608340024948,-0.6833739876747131,-0.7196562886238098,0,0,0,-1,-1,1163.108449375,unknown,2,2026-05-05T16:20:55.364+02:00,2026-05-05T16:12:27.330+02:00,645,0.8168712,0,0,506.8798,0,0,2026-05-05T16:20:39.892+02:00,799683665.7676581,0,0.009999275,100.7644,1,0.75,0
2026-05-05T16:21:06.214+02:00,1777990866.000405,53.23571364400311,10.40164763108864,18.92398,0,0.3080157,-1,-1,4.029364438188564,4.748651530191761,-9999,1173.952482,0.170379638671875,-0.646942138671875,-0.7037200927734375,1173.947445,0.02623470426828347,0.007715560046230104,-0.01371609182201893,0.006475263275206089,0.05664170533418655,0.02390007302165031,0.05324511229991913,0.01554960012435913,-0.004137992858886719,XArbitraryZVertical,-0.006907952090388484,0.003767392339837365,0.0130901153813635,0.9998833789952749,0.1230701953172684,-0.6834419965744019,-0.7195559144020081,0,0,0,-1,-1,1163.108449375,unknown,2,2026-05-05T16:20:55.364+02:00,2026-05-05T16:12:27.330+02:00,645,0.8168712,0,0,506.8798,0,0,2026-05-05T16:20:39.892+02:00,799683665.7676581,0,0.009999275,100.7644,1,0.75,0
2026-05-05T16:21:06.223+02:00,1777990866.000405,53.23571364400311,10.40164763108864,18.92398,0,0.3080157,-1,-1,4.029364438188564,4.748651530191761,-9999,1173.962555,0.16729736328125,-0.656097412109375,-0.6978302001953125,1173.957518,0.02653203374334999,0.008216557934415477,-0.01363760064677935,0.007587399333715439,0.04409102723002434,0.02932413294911385,0.05319799482822418,0.03041160106658936,0.01050406694412231,XArbitraryZVertical,-0.006872587217279103,0.004017356097073011,0.01323719625558381,0.9998807253205968,0.1232241168618202,-0.6835334897041321,-0.7194426655769348,0,0,0,-1,-1,1163.108449375,unknown,2,2026-05-05T16:20:55.364+02:00,2026-05-05T16:12:27.330+02:00,645,0.8168712,0,0,506.8798,0,0,2026-05-05T16:20:39.892+02:00,799683665.7676581,0,0.009999275,100.7644,1,0.75,0
2026-05-05T16:21:06.233+02:00,1777990866.000405,53.23571364400311,10.40164763108864,18.92398,0,0.3080157,-1,-1,4.029364438188564,4.748651530191761,-9999,1173.972629,0.1779022216796875,-0.6646881103515625,-0.69488525390625,1173.967592,0.02693646042785761,0.008610743376496279,-0.01360188748582849,-0.009643306024372578,0.03593722730875015,0.040916807949543,0.04271221160888672,0.03381115198135376,0.01766669750213623,XArbitraryZVertical,-0.006858193510045877,0.004213275750103889,0.01343810830908872,0.9998773703385118,0.1232271194458008,-0.6836066246032715,-0.7193726897239685,0,0,0,-1,-1,1163.108449375,unknown,2,2026-05-05T16:20:55.364+02:00,2026-05-05T16:12:27.330+02:00,645,0.8168712,0,0,506.8798,0,0,2026-05-05T16:20:39.892+02:00,799683665.7676581,0,0.009999275,100.7644,1,0.75,0
2026-05-05T16:21:06.243+02:00,1777990866.000405,53.23571364400311,10.40164763108864,18.92398,0,0.3080157,-1,-1,4.029364438188564,4.748651530191761,-9999,1173.982702,0.181182861328125,-0.6645965576171875,-0.6997833251953125,1173.977665,0.02741344477173644,0.008919722269544442,-0.0137272400432471,-0.02700791694223881,0.02748781815171242,0.04867832362651825,0.05011357367038727,0.02188998460769653,0.02493542432785034,XArbitraryZVertical,-0.006923979069237772,0.004365248903060693,0.01367522531605228,0.999873072492687,0.1231194511055946,-0.6835721135139465,-0.7194239497184753,0,0,0,-1,-1,1163.108449375,unknown,2,2026-05-05T16:20:55.364+02:00,2026-05-05T16:12:27.330+02:00,645,0.8168712,0,0,506.8798,0,0,2026-05-05T16:20:39.892+02:00,799683665.7676581,0,0.009999275,100.7644,1,0.75,0
2026-05-05T16:21:06.254+02:00,1777990866.000405,53.23571364400311,10.40164763108864,18.92398,0,0.3080157,-1,-1,4.029364438188564,4.748651530191761,-9999,1173.992775,0.1895904541015625,-0.663543701171875,-0.70416259765625,1173.987739,0.02792396467832114,0.009197733197074436,-0.01407431581927304,-0.04188704863190651,0.02869156561791897,0.05065898224711418,0.05678087472915649,0.01738119125366211,0.02181601524353027,XArbitraryZVertical,-0.007100544143861934,0.00450004019383736,0.01392867447517836,0.9998677616213444,0.1229676529765129,-0.6833814978599548,-0.7196309566497803,0,0,0,-1,-1,1163.108449375,unknown,2,2026-05-05T16:20:55.364+02:00,2026-05-05T16:12:27.330+02:00,645,0.8168712,0,0,506.8798,0,0,2026-05-05T16:20:39.892+02:00,799683665.7676581,0,0.009999275,100.7644,1,0.75,0
2026-05-05T16:21:06.264+02:00,1777990866.000405,53.23571364400311,10.40164763108864,18.92398,0,0.3080157,-1,-1,4.029364438188564,4.748651530191761,-9999,1174.002849,0.1876678466796875,-0.6595306396484375,-0.71307373046875,1173.997812,0.02842703917243699,0.009465298592725092,-0.0144916387953573,-0.04729246720671654,0.02569950371980667,0.0452149473130703,0.06204619258642197,0.01950383186340332,0.01844078302383423,XArbitraryZVertical,-0.00731220575791101,0.004629045975869228,0.01417821971548219,0.9998621018698498,0.1228140369057655,-0.6831390857696533,-0.7198873162269592,0,0,0,-1,-1,1163.108449375,unknown,2,2026-05-05T16:20:55.364+02:00,2026-05-05T16:12:27.330+02:00,645,0.8168712,0,0,506.8798,0,0,2026-05-05T16:20:39.892+02:00,799683665.7676581,0,0.009999275,100.7644,1,0.75,0
2026-05-05T16:21:06.274+02:00,1777990866.000405,53.23571364400311,10.40164763108864,18.92398,0,0.3080157,-1,-1,4.029364438188564,4.748651530191761,-9999,1174.012922,0.1889190673828125,-0.6448516845703125,-0.7161712646484375,1174.007885,0.02895845196610274,0.009705643728039771,-0.01494265000190105,-0.04426322877407074,0.02233166992664337,0.05992165952920914,0.06756402552127838,0.02000308036804199,0.01127743721008301,XArbitraryZVertical,-0.007540643936575745,0.004743985262507796,0.01444189115926007,0.9998561329657286,0.1226215213537216,-0.682875394821167,-0.720170259475708,0,0,0,-1,-1,1163.108449375,unknown,2,2026-05-05T16:20:55.364+02:00,2026-05-05T16:12:27.330+02:00,645,0.8168712,0,0,506.8798,0,0,2026-05-05T16:20:39.892+02:00,799683665.7676581,0,0.009999275,100.7644,1,0.75,0
2026-05-05T16:21:06.284+02:00,1777990866.000405,53.23571364400311,10.40164763108864,18.92398,0,0.3080157,-1,-1,4.029364438188564,4.748651530191761,-9999,1174.022996,0.196044921875,-0.6406097412109375,-0.7210845947265625,1174.017959,0.02962738377282639,0.009915599717513402,-0.01531502258288761,-0.03550115972757339,0.01920352131128311,0.06732205301523209,0.06450207531452179,0.02945512533187866,0.005514979362487793,XArbitraryZVertical,-0.007729939959768258,0.004843660643917926,0.01477457328832139,0.999849288555247,0.1223112791776657,-0.6826838254928589,-0.7204045653343201,0,0,0,-1,-1,1163.108449375,unknown,2,2026-05-05T16:20:55.364+02:00,2026-05-05T16:12:27.330+02:00,645,0.8168712,0,0,506.8798,0,0,2026-05-05T16:20:39.892+02:00,799683665.7676581,0,0.009999275,100.7644,1,0.75,0
2026-05-05T16:21:06.294+02:00,1777990866.000405,53.23571364400311,10.40164763108864,18.92398,0,0.3080157,-1,-1,4.029364438188564,4.748651530191761,-9999,1174.033069,0.1927337646484375,-0.641510009765625,-0.71392822265625,1174.028032,0.03044545700125926,0.01009810816352818,-0.01561689275029076,-0.03305185213685036,0.01992417313158512,0.09120853990316391,0.07070378214120865,0.0410194993019104,0.001906454563140869,XArbitraryZVertical,-0.007884216832110618,0.004929434763021259,0.01518206102329602,0.9998415986511905,0.1218773946166039,-0.6825600266456604,-0.7205954194068909,0,0,0,-1,-1,1163.108449375,unknown,2,2026-05-05T16:20:55.364+02:00,2026-05-05T16:12:27.330+02:00,645,0.8168712,0,0,506.8798,0,0,2026-05-05T16:20:39.892+02:00,799683665.7676581,0,0.009999275,100.7644,1,0.75,0
2026-05-05T16:21:06.304+02:00,1777990866.000405,53.23571364400311,10.40164763108864,18.92398,0,0.3080157,-1,-1,4.029364438188564,4.748651530191761,-9999,1174.043142,0.1905517578125,-0.6451416015625,-0.7007293701171875,1174.038106,0.03140508225700322,0.01031028124842361,-0.01590289383925434,-0.02271079830825329,0.02527952380478382,0.0951971560716629,0.07371708750724792,0.04167020320892334,0.001153647899627686,XArbitraryZVertical,-0.008031219832693188,0.005029469517825372,0.01566020575015682,0.9998324616217877,0.1213665306568146,-0.6824630498886108,-0.7207733988761902,0,0,0,-1,-1,1163.108449375,unknown,2,2026-05-05T16:20:55.364+02:00,2026-05-05T16:12:27.330+02:00,645,0.8168712,0,0,506.8798,0,0,2026-05-05T16:20:39.892+02:00,799683665.7676581,0,0.009999275,100.7644,1,0.75,0
2026-05-05T16:21:06.314+02:00,1777990866.000405,53.23571364400311,10.40164763108864,18.92398,0,0.3080157,-1,-1,4.029364438188564,4.748651530191761,-9999,1174.053216,0.182952880859375,-0.6487579345703125,-0.6947174072265625,1174.048179,0.0323968994441737,0.01055052883336127,-0.01615304299848531,-0.03648477420210838,0.0243479497730732,0.09738347679376602,0.07036981731653214,0.03914564847946167,0.0136028528213501,XArbitraryZVertical,-0.008160706000418091,0.0051435577150287,0.01615438824191382,0.9998229699253156,0.1208533123135567,-0.6823950409889221,-0.7209239602088928,0,0,0,-1,-1,1163.108449375,unknown,2,2026-05-05T16:20:55.364+02:00,2026-05-05T16:12:27.330+02:00,645,0.8168712,0,0,506.8798,0,0,2026-05-05T16:20:39.892+02:00,799683665.7676581,0,0.009999275,100.7644,1,0.75,0
2026-05-05T16:21:06.324+02:00,1777990866.000405,53.23571364400311,10.40164763108864,18.92398,0,0.3080157,-1,-1,4.029364438188564,4.748651530191761,-9999,1174.063289,0.1833953857421875,-0.6552886962890625,-0.691314697265625,1174.058253,0.03332134271698647,0.01073237116132475,-0.01662039011018165,-0.06365647912025452,0.01251499354839325,0.08739342540502548,0.0672147199511528,0.03491467237472534,0.02468091249465942,XArbitraryZVertical,-0.008398222580377207,0.005226786105523161,0.01661449743570303,0.9998130921901703,0.1203463152050972,-0.6821619272232056,-0.7212294340133667,0,0,0,-1,-1,1163.108449375,unknown,2,2026-05-05T16:20:55.364+02:00,2026-05-05T16:12:27.330+02:00,645,0.8168712,0,0,506.8798,0,0,2026-05-05T16:20:39.892+02:00,799683665.7676581,0,0.009999275,100.7644,1,0.75,0
2026-05-05T16:21:06.342+02:00,1777990866.000405,53.23571364400311,10.40164763108864,18.92398,0,0.3080157,-1,-1,4.029364438188564,4.748651530191761,-9999,1174.073362125,0.188232421875,-0.6598663330078125,-0.69573974609375,1174.068326,0.03421743242579139,0.01081091840330183,-0.01736033801104357,-0.08851255476474762,0.008406267501413822,0.0891590416431427,0.06189991533756256,0.0308946967124939,0.0277022123336792,XArbitraryZVertical,-0.008771134399594989,0.00525594263657014,0.01706007359121969,0.9998022346854331,0.1197864785790443,-0.6817277669906616,-0.7217329740524292,0,0,0,-1,-1,1163.108449375,unknown,2,2026-05-05T16:20:55.364+02:00,2026-05-05T16:12:27.330+02:00,645,0.8168712,0,0,506.8798,0,0,2026-05-05T16:20:39.892+02:00,799683665.7676581,0,0.009999275,100.7644,1,0.75,0
2026-05-05T16:21:06.344+02:00,1777990866.000405,53.23571364400311,10.40164763108864,18.92398,0,0.3080157,-1,-1,4.029364438188564,4.748651530191761,-9999,1174.083435125,0.1893768310546875,-0.652984619140625,-0.7053985595703125,1174.078398125,0.03516269921595518,0.01091135869198804,-0.01825164881780838,-0.09072457998991013,0.01142948772758245,0.09324619174003601,0.06716142594814301,0.02087980508804321,0.03088527917861938,XArbitraryZVertical,-0.009220059995497526,0.00529415034574953,0.01752967053374972,0.9997898563900459,0.1192094162106514,-0.6811885833740234,-0.7223373055458069,0,0,0,-1,-1,1163.108449375,unknown,2,2026-05-05T16:20:55.364+02:00,2026-05-05T16:12:27.330+02:00,645,0.8168712,0,0,506.8798,0,0,2026-05-05T16:20:39.892+02:00,799683665.7676581,0,0.009999275,100.7644,1,0.75,0
2026-05-05T16:21:06.356+02:00,1777990866.000405,53.23571364400311,10.40164763108864,18.92398,0,0.3080157,-1,-1,4.029364438188564,4.748651530191761,-9999,1174.093508125,0.1936187744140625,-0.6496429443359375,-0.714599609375,1174.088472125,0.03619857029283378,0.01105822713630041,-0.01916808445580677,-0.1015074476599693,0.01559440605342388,0.1046358644962311,0.06988859921693802,0.02466475963592529,0.02266710996627808,XArbitraryZVertical,-0.00968224189501446,0.00535447644965736,0.01804420793937609,0.9997759550485279,0.1186032146215439,-0.6806400418281555,-0.7229539155960083,0,0,0,-1,-1,1163.108449375,unknown,2,2026-05-05T16:20:55.364+02:00,2026-05-05T16:12:27.330+02:00,645,0.8168712,0,0,506.8798,0,0,2026-05-05T16:20:39.892+02:00,799683665.7676581,0,0.009999275,100.7644,1,0.75,0
2026-05-05T16:21:06.365+02:00,1777990866.000405,53.23571364400311,10.40164763108864,18.92398,0,0.3080157,-1,-1,4.029364438188564,4.748651530191761,-9999,1174.103582125,0.20147705078125,-0.6422882080078125,-0.708953857421875,1174.098545125,0.03731589208147758,0.0112756224719165,-0.02023500045010562,-0.11818016320467,0.02414155565202236,0.112084724009037,0.07231488823890686,0.02833306789398193,0.01326167583465576,XArbitraryZVertical,-0.01022058360565901,0.005447756883006302,0.0185985824178704,0.9997599691853404,0.1179927140474319,-0.6799901127815247,-0.7236650586128235,0,0,0,-1,-1,1163.108449375,unknown,2,2026-05-05T16:20:55.364+02:00,2026-05-05T16:12:27.330+02:00,645,0.8168712,0,0,506.8798,0,0,2026-05-05T16:20:39.892+02:00,799683665.7676581,0,0.009999275,100.7644,1,0.75,0
2026-05-05T16:21:06.382+02:00,1777990866.000405,53.23571364400311,10.40164763108864,18.92398,0,0.3080157,-1,-1,4.029364438188564,4.748651530191761,-9999,1174.113655125,0.20562744140625,-0.6448211669921875,-0.697906494140625,1174.108619125,0.03851771061315742,0.01156593135013089,-0.02142076533670875,-0.1175354197621346,0.02910116128623486,0.1213801577687263,0.07930836081504822,0.03292971849441528,0.0106581449508667,XArbitraryZVertical,-0.01081937215300518,0.005575279859251813,0.01919431361419249,0.9997416790199171,0.1173774302005768,-0.6792614459991455,-0.7244490385055542,0,0,0,-1,-1,1163.108449375,unknown,2,2026-05-05T16:20:55.364+02:00,2026-05-05T16:12:27.330+02:00,645,0.8168712,0,0,506.8798,0,0,2026-05-05T16:20:39.892+02:00,799683665.7676581,0,0.009999275,100.7644,1,0.75,0
2026-05-05T16:21:06.384+02:00,1777990866.000405,53.23571364400311,10.40164763108864,18.92398,0,0.3080157,-1,-1,4.029364438188564,4.748651530191761,-9999,1174.123729125,0.2054443359375,-0.656158447265625,-0.6851806640625,1174.118692125,0.03979832481585348,0.01197127200095707,-0.02251273743229233,-0.09440906345844269,0.05170154199004173,0.1269179284572601,0.08782996237277985,0.03697556257247925,0.02206182479858398,XArbitraryZVertical,-0.0113727932294963,0.005760066989156592,0.01982886962592822,0.999722169956761,0.1167903989553452,-0.6786075830459595,-0.7251563668251038,0,0,0,-1,-1,1163.108449375,unknown,2,2026-05-05T16:20:55.364+02:00,2026-05-05T16:12:27.330+02:00,645,0.8168712,0,0,506.8798,0,0,2026-05-05T16:20:39.892+02:00,799683665.7676581,0,0.009999275,100.7644,1,0.75,0
2026-05-05T16:21:06.394+02:00,1777990866.000405,53.23571364400311,10.40164763108864,18.92398,0,0.3080157,-1,-1,4.029364438188564,4.748651530191761,-9999,1174.133802125,0.2078399658203125,-0.6716461181640625,-0.681884765625,1174.128765125,0.04114040250479394,0.01250034544040926,-0.02365037648913623,-0.1499849706888199,0.04786046594381332,0.1316427886486053,0.08872006833553314,0.02811431884765625,0.03342193365097046,XArbitraryZVertical,-0.01195072801561976,0.006005153718179453,0.02049301839384412,0.999700570652674,0.1162512376904488,-0.6779250502586365,-0.725881040096283,0,0,0,-1,-1,1163.108449375,unknown,2,2026-05-05T16:20:55.364+02:00,2026-05-05T16:12:27.330+02:00,645,0.8168712,0,0,506.8798,0,0,2026-05-05T16:20:39.892+02:00,799683665.7676581,0,0.009999275,100.7644,1,0.75,0
2026-05-05T16:21:06.405+02:00,1777990866.000405,53.23571364400311,10.40164763108864,18.92398,0,0.3080157,-1,-1,4.029364438188564,4.748651530191761,-9999,1174.143875125,0.207122802734375,-0.68560791015625,-0.6793365478515625,1174.138839125,0.04248051880332897,0.01304177297374986,-0.02557136376106028,-0.2075971364974976,0.05266108363866806,0.1267865002155304,0.09163700044155121,0.0154910683631897,0.0458143949508667,XArbitraryZVertical,-0.0129206596953338,0.006247298601645235,0.0211531213921556,0.9996732892537115,0.1157299429178238,-0.6766696572303772,-0.7271345853805542,0,0,0,-1,-1,1163.108449375,unknown,2,2026-05-05T16:20:55.364+02:00,2026-05-05T16:12:27.330+02:00,645,0.8168712,0,0,506.8798,0,0,2026-05-05T16:20:39.892+02:00,799683665.7676581,0,0.009999275,100.7644,1,0.75,0
2026-05-05T16:21:06.414+02:00,1777990866.000405,53.23571364400311,10.40164763108864,18.92398,0,0.3080157,-1,-1,4.029364438188564,4.748651530191761,-9999,1174.153949125,0.212982177734375,-0.6670684814453125,-0.6624603271484375,1174.148912125,0.04386320597492072,0.01348784742163628,-0.02774156192707114,-0.2421236336231232,0.03107296489179134,0.139905646443367,0.09118577837944031,-0.007857024669647217,0.04613250494003296,XArbitraryZVertical,-0.01401456200822801,0.006437434355007017,0.02183371776516025,0.9996427289732602,0.1151130348443985,-0.6752331256866455,-0.728566586971283,0,0,0,-1,-1,1163.108449375,unknown,2,2026-05-05T16:20:55.364+02:00,2026-05-05T16:12:27.330+02:00,645,0.8168712,0,0,506.8798,0,0,2026-05-05T16:20:39.892+02:00,799683665.7676581,0,0.009999275,100.7644,1,0.75,0
2026-05-05T16:21:06.424+02:00,1777990866.000405,53.23571364400311,10.40164763108864,18.92398,0,0.3080157,-1,-1,4.029364438188564,4.748651530191761,-9999,1174.164022125,0.2161102294921875,-0.6552734375,-0.64483642578125,1174.158986125,0.045286306888319,0.01378037143842578,-0.03062366596477814,-0.3483523428440094,0.02326084859669209,0.1305808424949646,0.09636025875806808,-0.005084693431854248,0.05973279476165771,XArbitraryZVertical,-0.01546292779121968,0.0065409002239225,0.02253255598593235,0.9996052003571462,0.1143636107444763,-0.6732752919197083,-0.73049396276474,0,0,0,-1,-1,1163.108449375,unknown,2,2026-05-05T16:20:55.364+02:00,2026-05-05T16:12:27.330+02:00,645,0.8168712,0,0,506.8798,0,0,2026-05-05T16:20:39.892+02:00,799683665.7676581,0,0.009999275,100.7644,1,0.75,0
2026-05-05T16:21:06.435+02:00,1777990866.000405,53.23571364400311,10.40164763108864,18.92398,0,0.3080157,-1,-1,4.029364438188564,4.748651530191761,-9999,1174.174096125,0.221343994140625,-0.6543426513671875,-0.616058349609375,1174.169059125,0.0466417642843413,0.01404069305155623,-0.03444083918870539,-0.4013889133930206,0.02172846533358097,0.1273972392082214,0.1012574955821037,0.01220005750656128,0.07670515775680542,XArbitraryZVertical,-0.01737814187622564,0.006615809976439715,0.02319388247708407,0.9995580565620514,0.1136472821235657,-0.6706167459487915,-0.7330467104911804,0,0,0,-1,-1,1163.108449375,unknown,2,2026-05-05T16:20:55.364+02:00,2026-05-05T16:12:27.330+02:00,645,0.8168712,0,0,506.8798,0,0,2026-05-05T16:20:39.892+02:00,799683665.7676581,0,0.009999275,100.7644,1,0.75,0
2026-05-05T16:21:06.445+02:00,1777990866.000405,53.23571364400311,10.40164763108864,18.92398,0,0.3080157,-1,-1,4.029364438188564,4.748651530191761,-9999,1174.184169125,0.2346038818359375,-0.6241607666015625,-0.610565185546875,1174.179132125,0.04808869809229481,0.01421937740124288,-0.03861101165641292,-0.4250114262104034,0.007552990689873695,0.1466614753007889,0.104519285261631,0.01194989681243896,0.1058924794197083,XArbitraryZVertical,-0.0194691369841673,0.006642146242986708,0.0238997378315988,0.9995026974155458,0.1128116473555565,-0.6676962971687317,-0.7358363270759583,0,0,0,-1,-1,1163.108449375,unknown,2,2026-05-05T16:20:55.364+02:00,2026-05-05T16:12:27.330+02:00,645,0.8168712,0,0,506.8798,0,0,2026-05-05T16:20:39.892+02:00,799683665.7676581,0,0.009999275,100.7644,1,0.75,0
2026-05-05T16:21:06.455+02:00,1777990866.000405,53.23571364400311,10.40164763108864,18.92398,0,0.3080157,-1,-1,4.029364438188564,4.748651530191761,-9999,1174.194243125,0.237762451171875,-0.58880615234375,-0.6003875732421875,1174.189206125,0.04965839565378966,0.01434704269064849,-0.04281018200468824,-0.4292378723621368,0.008506136946380138,0.155864417552948,0.1167228296399117,0.01953589916229248,0.1274963617324829,XArbitraryZVertical,-0.02157436074277133,0.006638243530878451,0.02466683108701479,0.9994408670412427,0.1118538230657578,-0.6647537350654602,-0.7386413812637329,0,0,0,-1,-1,1163.108449375,unknown,2,2026-05-05T16:20:55.364+02:00,2026-05-05T16:12:27.330+02:00,645,0.8168712,0,0,506.8798,0,0,2026-05-05T16:20:39.892+02:00,799683665.7676581,0,0.009999275,100.7644,1,0.75,0
2026-05-05T16:21:06.465+02:00,1777990866.000405,53.23571364400311,10.40164763108864,18.92398,0,0.3080157,-1,-1,4.029364438188564,4.748651530191761,-9999,1174.204316125,0.26483154296875,-0.5865325927734375,-0.59320068359375,1174.199279125,0.05257778449829774,0.01393872602148066,-0.04853826524672841,-0.5823390483856201,-0.01014078501611948,0.2925224304199219,0.1278072595596313,0.05956858396530151,0.1361252069473267,XArbitraryZVertical,-0.02444091582545582,0.006326989693601875,0.02610842071422071,0.999340290623099,0.1095737144351006,-0.6607953906059265,-0.7425247430801392,0,0,0,-1,-1,1163.108449375,unknown,2,2026-05-05T16:20:55.364+02:00,2026-05-05T16:12:27.330+02:00,645,0.8168712,0,0,506.8798,0,0,2026-05-05T16:20:39.892+02:00,799683665.7676581,0,0.009999275,100.7644,1,0.75,0
2026-05-05T16:21:06.475+02:00,1777990866.000405,53.23571364400311,10.40164763108864,18.92398,0,0.3080157,-1,-1,4.029364438188564,4.748651530191761,-9999,1174.214389125,0.30352783203125,-0.6635894775390625,-0.6263275146484375,1174.209353125,0.05454444487148874,0.01380388486156521,-0.05408581064770741,-0.565557062625885,0.003286074614152312,0.1636794060468674,0.1324454843997955,0.07327914237976074,0.1480478644371033,XArbitraryZVertical,-0.02721704779586956,0.006159477105229998,0.02707166684044032,0.9992439339055086,0.1081550940871239,-0.6568514704704285,-0.7462228536605835,0,0,0,-1,-1,1163.108449375,unknown,2,2026-05-05T16:20:55.364+02:00,2026-05-05T16:12:27.330+02:00,645,0.8168712,0,0,506.8798,0,0,2026-05-05T16:20:39.892+02:00,799683665.7676581,0,0.009999275,100.7644,1,0.75,0
2026-05-05T16:21:06.485+02:00,1777990866.000405,53.23571364400311,10.40164763108864,18.92398,0,0.3080157,-1,-1,4.029364438188564,4.748651530191761,-9999,1174.224463125,0.181671142578125,-0.5751953125,-0.68603515625,1174.219426125,0.05667459636576017,0.01378579651857715,-0.05923065990474938,-0.5006568431854248,-0.01562449987977743,0.1994248926639557,0.2017209827899933,0.03490149974822998,0.1554951667785645,XArbitraryZVertical,-0.02979362051800603,0.006048091222921068,0.02811638478223894,0.999142316304226,0.106704905629158,-0.6532028317451477,-0.7496266961097717,0,0,0,-1,-1,1163.108449375,unknown,2,2026-05-05T16:20:55.364+02:00,2026-05-05T16:12:27.330+02:00,645,0.8168712,0,0,506.8798,0,0,2026-05-05T16:20:39.892+02:00,799683665.7676581,0,0.009999275,100.7644,1,0.75,0
2026-05-05T16:21:06.495+02:00,1777990866.000405,53.23571364400311,10.40164763108864,18.92398,0,0.3080157,-1,-1,4.029364438188564,4.748651530191761,-9999,1174.234536125,0.258026123046875,-0.593170166015625,-0.693359375,1174.229499125,0.0585796288861129,0.01390413827171306,-0.06500822865480699,-0.6507558822631836,0.01345961540937424,0.1792001128196716,0.1253768503665924,0.004488289356231689,0.08758807182312012,XArbitraryZVertical,-0.03268715116947262,0.005993647699275401,0.02904361596000752,0.9990256442939348,0.1055191531777382,-0.6490347981452942,-0.7534053325653076,0,0,0,-1,-1,1163.108449375,unknown,2,2026-05-05T16:20:55.364+02:00,2026-05-05T16:12:27.330+02:00,645,0.8168712,0,0,506.8798,0,0,2026-05-05T16:20:39.892+02:00,799683665.7676581,0,0.009999275,100.7644,1,0.75,0
2026-05-05T16:21:06.505+02:00,1777990866.000405,53.23571364400311,10.40164763108864,18.92398,0,0.3080157,-1,-1,4.029364438188564,4.748651530191761,-9999,1174.244610125,0.280487060546875,-0.649505615234375,-0.6670379638671875,1174.239573125,0.06043923788953873,0.01425967705031636,-0.0724389646679658,-0.841029167175293,0.03677878901362419,0.168190598487854,0.1019066274166107,0.09155076742172241,0.06326937675476074,XArbitraryZVertical,-0.03640939347585927,0.006027743354484284,0.02993637135384363,0.9988703343218682,0.1045600399374962,-0.6435832381248474,-0.7582004070281982,0,0,0,-1,-1,1163.108449375,unknown,2,2026-05-05T16:20:55.364+02:00,2026-05-05T16:12:27.330+02:00,645,0.8168712,0,0,506.8798,0,0,2026-05-05T16:20:39.892+02:00,799683665.7676581,0,0.009999275,100.7644,1,0.75,0
2026-05-05T16:21:06.515+02:00,1777990866.000405,53.23571364400311,10.40164763108864,18.92398,0,0.3080157,-1,-1,4.029364438188564,4.748651530191761,-9999,1174.254683125,0.265838623046875,-0.6285552978515625,-0.65399169921875,1174.249646125,0.06204598760993729,0.01489149999585077,-0.08139932473046162,-0.9415515065193176,0.06489671021699905,0.1330759674310684,0.1795185804367065,-0.0007797479629516602,0.08126610517501831,XArbitraryZVertical,-0.04089847775691575,0.006173895986072561,0.03068866289267533,0.9986728878141425,0.1040049716830254,-0.6369003057479858,-0.7638985514640808,0,0,0,-1,-1,1163.108449375,unknown,2,2026-05-05T16:20:55.364+02:00,2026-05-05T16:12:27.330+02:00,645,0.8168712,0,0,506.8798,0,0,2026-05-05T16:20:39.892+02:00,799683665.7676581,0,0.009999275,100.7644,1,0.75,0
2026-05-05T16:21:06.525+02:00,1777990866.000405,53.23571364400311,10.40164763108864,18.92398,0,0.3080157,-1,-1,4.029364438188564,4.748651530191761,-9999,1174.264756125,0.244415283203125,-0.556854248046875,-0.657928466796875,1174.259720125,0.06381927408438311,0.01589191639166591,-0.09124612007733619,-0.9804642796516418,0.09373687952756882,0.1667087525129318,0.1666770130395889,-0.01108354330062866,0.1131559014320374,XArbitraryZVertical,-0.04583581914119553,0.006478548115074828,0.03150781159270457,0.9984310006108947,0.103632427752018,-0.6294956207275391,-0.7700620889663696,0,0,0,-1,-1,1163.108449375,unknown,2,2026-05-05T16:20:55.364+02:00,2026-05-05T16:12:27.330+02:00,645,0.8168712,0,0,506.8798,0,0,2026-05-05T16:20:39.892+02:00,799683665.7676581,0,0.009999275,100.7644,1,0.75,0
2026-05-05T16:21:06.535+02:00,1777990866.000405,53.23571364400311,10.40164763108864,18.92398,0,0.3080157,-1,-1,4.029364438188564,4.748651530191761,-9999,1174.274830125,0.23968505859375,-0.4719696044921875,-0.6536712646484375,1174.269793125,0.06542931208293856,0.01704191363959613,-0.1005382867802673,-0.8683592677116394,0.1094753593206406,0.1246391385793686,0.1559961140155792,0.01683807373046875,0.1176034212112427,XArbitraryZVertical,-0.05049761516679929,0.006862043726743342,0.03223838688580752,0.9981802294418574,0.1034948527812958,-0.6224441528320312,-0.7757912874221802,0,0,0,-1,-1,1163.108449375,unknown,2,2026-05-05T16:20:55.364+02:00,2026-05-05T16:12:27.330+02:00,645,0.8168712,0,0,506.8798,0,0,2026-05-05T16:20:39.892+02:00,799683665.7676581,0,0.009999275,100.7644,1,0.75,0
2026-05-05T16:21:06.545+02:00,1777990866.000405,53.23571364400311,10.40164763108864,18.92398,0,0.3080157,-1,-1,4.029364438188564,4.748651530191761,-9999,1174.284903125,0.2525787353515625,-0.4427642822265625,-0.6840362548828125,1174.279866125,0.06668433611852584,0.01833055628142113,-0.1086089361626706,-0.7542888522148132,0.1217101886868477,0.08902841061353683,0.1307553350925446,0.113163948059082,0.1281408071517944,XArbitraryZVertical,-0.05455041402011092,0.007337225114309204,0.03278826330858193,0.9979455736439906,0.1037112101912498,-0.6162614226341248,-0.7806829214096069,0,0,0,-1,-1,1163.108449375,unknown,2,2026-05-05T16:20:55.364+02:00,2026-05-05T16:12:27.330+02:00,645,0.8168712,0,0,506.8798,0,0,2026-05-05T16:20:39.892+02:00,799683665.7676581,0,0.009999275,100.7644,1,0.75,0
2026-05-05T16:21:06.555+02:00,1777990866.000405,53.23571364400311,10.40164763108864,18.92398,0,0.3080157,-1,-1,4.029364438188564,4.748651530191761,-9999,1174.294977125,0.23602294921875,-0.4535369873046875,-0.719757080078125,1174.289940125,0.06744830708894989,0.01996892562931945,-0.115951034535247,-0.7198795080184937,0.1847959458827972,0.03488394618034363,0.1454220116138458,0.1545130610466003,0.1189869046211243,XArbitraryZVertical,-0.05824329035666306,0.008008241942273654,0.03308124015454141,0.9977220856179723,0.1045474633574486,-0.6105677485466003,-0.7850330471992493,0,0,0,-1,-1,1163.108449375,unknown,2,2026-05-05T16:20:55.364+02:00,2026-05-05T16:12:27.330+02:00,645,0.8168712,0,0,506.8798,0,0,2026-05-05T16:20:39.892+02:00,799683665.7676581,0,0.009999275,100.7644,1,0.75,0
2026-05-05T16:21:06.565+02:00,1777990866.000405,53.23571364400311,10.40164763108864,18.92398,0,0.3080157,-1,-1,4.029364438188564,4.748651530191761,-9999,1174.305050125,0.2122344970703125,-0.520965576171875,-0.7384185791015625,1174.300013125,0.06783864612324209,0.02214915494596858,-0.1238997043901027,-0.8839219808578491,0.2415242195129395,0.006591057404875755,0.1416328549385071,0.1660188436508179,0.08674454689025879,XArbitraryZVertical,-0.06224567017066887,0.008947327657516756,0.0331604674933923,0.997469721144927,0.1060935780405998,-0.6043274998664856,-0.7896406650543213,0,0,0,-1,-1,1163.108449375,unknown,2,2026-05-05T16:20:55.364+02:00,2026-05-05T16:12:27.330+02:00,645,0.8168712,0,0,506.8798,0,0,2026-05-05T16:20:39.892+02:00,799683665.7676581,0,0.009999275,100.7644,1,0.75,0
2026-05-05T16:21:06.576+02:00,1777990866.000405,53.23571364400311,10.40164763108864,18.92398,0,0.3080157,-1,-1,4.029364438188564,4.748651530191761,-9999,1174.315123125,0.2066802978515625,-0.55767822265625,-0.7149658203125,1174.310087125,0.06812237946600846,0.02472484309116896,-0.1338854038629664,-1.110001802444458,0.2368503510951996,0.03261546790599823,0.1150669977068901,0.1098892688751221,0.06173890829086304,XArbitraryZVertical,-0.06726884657422723,0.01004943228917645,0.03314927436712756,0.9971334610741378,0.1080775335431099,-0.5964157581329346,-0.7953662276268005,0,0,0,-1,-1,1163.108449375,unknown,2,2026-05-05T16:20:55.364+02:00,2026-05-05T16:12:27.330+02:00,645,0.8168712,0,0,506.8798,0,0,2026-05-05T16:20:39.892+02:00,799683665.7676581,0,0.009999275,100.7644,1,0.75,0
2026-05-05T16:21:06.586+02:00,1777990866.000405,53.23571364400311,10.40164763108864,18.92398,0,0.3080157,-1,-1,4.029364438188564,4.748651530191761,-9999,1174.325197125,0.1925811767578125,-0.5609893798828125,-0.694488525390625,1174.320160125,0.0692055420901492,0.02763580207583595,-0.1464377096690664,-1.371922850608826,0.3483657240867615,0.05111245438456535,0.09813476353883743,0.04280918836593628,0.07195848226547241,XArbitraryZVertical,-0.07357941787096524,0.01124162477814782,0.03348968562219647,0.9966636275375195,0.1098425313830376,-0.5864492654800415,-0.8025035262107849,0,0,0,-1,-1,1163.108449375,unknown,2,2026-05-05T16:20:55.364+02:00,2026-05-05T16:12:27.330+02:00,645,0.8168712,0,0,506.8798,0,0,2026-05-05T16:20:39.892+02:00,799683665.7676581,0,0.009999275,100.7644,1,0.75,0
2026-05-05T16:21:06.596+02:00,1777990866.000405,53.23571364400311,10.40164763108864,18.92398,0,0.3080157,-1,-1,4.029364438188564,4.748651530191761,-9999,1174.335270125,0.1554107666015625,-0.53424072265625,-0.6980133056640625,1174.330233125,0.06989877242876032,0.03140268499335257,-0.1614467653688833,-1.602223992347717,0.3676435053348541,0.03080258518457413,0.09072934836149216,0.01014870405197144,0.1105136275291443,XArbitraryZVertical,-0.08112339259903865,0.01282276426258912,0.0335589274313044,0.99605648184259,0.1126550510525703,-0.5743576288223267,-0.8108157515525818,0,0,0,-1,-1,1163.108449375,unknown,2,2026-05-05T16:20:55.364+02:00,2026-05-05T16:12:27.330+02:00,645,0.8168712,0,0,506.8798,0,0,2026-05-05T16:20:39.892+02:00,799683665.7676581,0,0.009999275,100.7644,1,0.75,0
2026-05-05T16:21:06.606+02:00,1777990866.000405,53.23571364400311,10.40164763108864,18.92398,0,0.3080157,-1,-1,4.029364438188564,4.748651530191761,-9999,1174.345344125,0.2287445068359375,-0.465301513671875,-0.6749114990234375,1174.340307125,0.07066194007214678,0.03533201114422461,-0.1774714619425135,-1.585979342460632,0.3962503969669342,0.005457282997667789,0.05116402357816696,0.0102810263633728,0.1209585070610046,XArbitraryZVertical,-0.08917172999572737,0.01445473577253606,0.03361465670033686,0.9953440373636652,0.1156297996640205,-0.5613064169883728,-0.8194906115531921,0,0,0,-1,-1,1163.108449375,unknown,2,2026-05-05T16:20:55.364+02:00,2026-05-05T16:12:27.330+02:00,645,0.8168712,0,0,506.8798,0,0,2026-05-05T16:20:39.892+02:00,799683665.7676581,0,0.009999275,100.7644,1,0.75,0
2026-05-05T16:21:06.616+02:00,1777990866.000405,53.23571364400311,10.40164763108864,18.92398,0,0.3080157,-1,-1,4.029364438188564,4.748651530191761,-9999,1174.355417125,0.2284393310546875,-0.4213409423828125,-0.7059478759765625,1174.350380125,0.07159305771322284,0.03963145004124311,-0.1937688049177425,-1.614287614822388,0.4299471080303192,0.03114487044513226,0.06605976074934006,0.04701250791549683,0.1448459029197693,XArbitraryZVertical,-0.09735776286774199,0.01624758845238801,0.03369857431106609,0.9945461089655188,0.1188615038990974,-0.5478974580764771,-0.8280581831932068,0,0,0,-1,-1,1163.108449375,unknown,2,2026-05-05T16:20:55.364+02:00,2026-05-05T16:12:27.330+02:00,645,0.8168712,0,0,506.8798,0,0,2026-05-05T16:20:39.892+02:00,799683665.7676581,0,0.009999275,100.7644,1,0.75,0
2026-05-05T16:21:06.626+02:00,1777990866.000405,53.23571364400311,10.40164763108864,18.92398,0,0.3080157,-1,-1,4.029364438188564,4.748651530191761,-9999,1174.365490125,0.1730194091796875,-0.3632965087890625,-0.70648193359375,1174.360454125,0.0723532499129554,0.04434106714974264,-0.2098626037960502,-1.604752421379089,0.4684308469295502,-0.02094230055809021,0.1226531341671944,0.08985775709152222,0.1470640897750854,XArbitraryZVertical,-0.1054419971526599,0.01824501805138423,0.0336405508085359,0.9936888086157822,0.1226166486740112,-0.5344988107681274,-0.8362273573875427,0,0,0,-1,-1,1163.108449375,unknown,2,2026-05-05T16:20:55.364+02:00,2026-05-05T16:12:27.330+02:00,645,0.8168712,0,0,506.8798,0,0,2026-05-05T16:20:39.892+02:00,799683665.7676581,0,0.009999275,100.7644,1,0.75,0
2026-05-05T16:21:06.636+02:00,1777990866.000405,53.23571364400311,10.40164763108864,18.92398,0,0.3080157,-1,-1,4.029364438188564,4.748651530191761,-9999,1174.375564125,0.167449951171875,-0.4176025390625,-0.697174072265625,1174.370527125,0.0725102258069341,0.04932518781752777,-0.2266810548082997,-1.776912093162537,0.5120715498924255,-0.1131933331489563,0.0715126097202301,0.136002779006958,0.1361757516860962,XArbitraryZVertical,-0.1138774433438308,0.02038753204640158,0.03321647420654149,0.9927301037996956,0.1271110326051712,-0.5202953815460205,-0.8444734811782837,0,0,0,-1,-1,1163.108449375,unknown,2,2026-05-05T16:20:55.364+02:00,2026-05-05T16:12:27.330+02:00,645,0.8168712,0,0,506.8798,0,0,2026-05-05T16:20:39.892+02:00,799683665.7676581,0,0.009999275,100.7644,1,0.75,0
2026-05-05T16:21:06.646+02:00,1777990866.000405,53.23571364400311,10.40164763108864,18.92398,0,0.3080157,-1,-1,4.029364438188564,4.748651530191761,-9999,1174.385637125,0.1744232177734375,-0.5166168212890625,-0.65435791015625,1174.380601125,0.07247174915503135,0.05452148371990799,-0.2470454596887308,-2.282130002975464,0.5365846157073975,-0.08607570081949234,0.03152801096439362,0.1243416666984558,0.1487581133842468,XArbitraryZVertical,-0.1240621699360979,0.02256998225824702,0.03258241173320466,0.9914825841577507,0.1320919692516327,-0.502881646156311,-0.8542024493217468,0,0,0,-1,-1,1163.108449375,unknown,2,2026-05-05T16:20:55.364+02:00,2026-05-05T16:12:27.330+02:00,645,0.8168712,0,0,506.8798,0,0,2026-05-05T16:20:39.892+02:00,799683665.7676581,0,0.009999275,100.7644,1,0.75,0
2026-05-05T16:21:06.656+02:00,1777990866.000405,53.23571364400311,10.40164763108864,18.92398,0,0.3080157,-1,-1,4.029364438188564,4.748651530191761,-9999,1174.395711125,0.1148834228515625,-0.604156494140625,-0.614532470703125,1174.390674125,0.0724378235030058,0.06067865076493619,-0.2734212283866639,-2.957884550094604,0.6523658037185669,-0.2280457466840744,0.03550168871879578,0.01317727565765381,0.1865615248680115,XArbitraryZVertical,-0.1372212968365182,0.02509917825405256,0.03172516775467097,0.9897140864081306,0.1381585896015167,-0.4800198972225189,-0.8663100600242615,0,0,0,-1,-1,1163.108449375,unknown,2,2026-05-05T16:20:55.364+02:00,2026-05-05T16:12:27.330+02:00,645,0.8168712,0,0,506.8798,0,0,2026-05-05T16:20:39.892+02:00,799683665.7676581,0,0.009999275,100.7644,1,0.75,0
2026-05-05T16:21:06.666+02:00,1777990866.000405,53.23571364400311,10.40164763108864,18.92398,0,0.3080157,-1,-1,4.029364438188564,4.748651530191761,-9999,1174.405784125,0.12103271484375,-0.6049346923828125,-0.601654052734375,1174.400747125,0.07236933266827661,0.06745231621641831,-0.3061127184042629,-3.51700758934021,0.7164542675018311,-0.2109317481517792,0.01107659935951233,-0.112851470708847,0.2515707015991211,XArbitraryZVertical,-0.1534786318885544,0.02779140123632139,0.0305959886916187,0.9872871526583544,0.1450971066951752,-0.4512201845645905,-0.8805379867553711,0,0,0,-1,-1,1163.108449375,unknown,2,2026-05-05T16:20:55.364+02:00,2026-05-05T16:12:27.330+02:00,645,0.8168712,0,0,506.8798,0,0,2026-05-05T16:20:39.892+02:00,799683665.7676581,0,0.009999275,100.7644,1,0.75,0
2026-05-05T16:21:06.676+02:00,1777990866.000405,53.23571364400311,10.40164763108864,18.92398,0,0.3080157,-1,-1,4.029364438188564,4.748651530191761,-9999,1174.415857125,0.15557861328125,-0.51605224609375,-0.645111083984375,1174.410821125,0.07247227352465077,0.07508464450578657,-0.3441048533714751,-3.977530002593994,0.7916680574417114,-0.3194411993026733,-0.06057228147983551,-0.2064341604709625,0.2901515960693359,XArbitraryZVertical,-0.1723115691898374,0.03075698865827042,0.02924646369912609,0.9841277902711763,0.1529795080423355,-0.4171620011329651,-0.8958644866943359,0,0,0,-1,-1,1163.108449375,unknown,2,2026-05-05T16:20:55.364+02:00,2026-05-05T16:12:27.330+02:00,645,0.8168712,0,0,506.8798,0,0,2026-05-05T16:20:39.892+02:00,799683665.7676581,0,0.009999275,100.7644,1,0.75,0
2026-05-05T16:21:06.686+02:00,1777990866.000405,53.23571364400311,10.40164763108864,18.92398,0,0.3080157,-1,-1,4.029364438188564,4.748651530191761,-9999,1174.425931125,0.12274169921875,-0.434173583984375,-0.666351318359375,1174.420894125,0.07241078926776202,0.08331602001169126,-0.3857096404097961,-4.260198593139648,0.8494442701339722,-0.3452533483505249,-0.0043143630027771,-0.1808199882507324,0.2942585349082947,XArbitraryZVertical,-0.1928493131772364,0.03391545548560785,0.02751890110401622,0.9802559357091971,0.1617698073387146,-0.3791623115539551,-0.9110798239707947,0,0,0,-1,-1,1163.108449375,unknown,2,2026-05-05T16:20:55.364+02:00,2026-05-05T16:12:27.330+02:00,645,0.8168712,0,0,506.8798,0,0,2026-05-05T16:20:39.892+02:00,799683665.7676581,0,0.009999275,100.7644,1,0.75,0
2026-05-05T16:21:06.697+02:00,1777990866.000405,53.23571364400311,10.40164763108864,18.92398,0,0.3080157,-1,-1,4.029364438188564,4.748651530191761,-9999,1174.436004125,0.13897705078125,-0.2983856201171875,-0.6102294921875,1174.430968125,0.07238501090911725,0.09194087522317557,-0.4297201301556356,-4.42065954208374,0.8699937462806702,-0.4390687942504883,-0.03882595896720886,-0.1402750015258789,0.2593095898628235,XArbitraryZVertical,-0.2144705622073435,0.03716138713581639,0.02552371382616974,0.9756895839629534,0.1710891276597977,-0.3382558822631836,-0.925370991230011,0,0,0,-1,-1,1163.108449375,unknown,2,2026-05-05T16:20:55.364+02:00,2026-05-05T16:12:27.330+02:00,645,0.8168712,0,0,506.8798,0,0,2026-05-05T16:20:39.892+02:00,799683665.7676581,0,0.009999275,100.7644,1,0.75,0
2026-05-05T16:21:06.707+02:00,1777990866.000405,53.23571364400311,10.40164763108864,18.92398,0,0.3080157,-1,-1,4.029364438188564,4.748651530191761,-9999,1174.446078125,0.134979248046875,-0.1841888427734375,-0.5579986572265625,1174.441041125,0.07182844674692934,0.1005378404928496,-0.474328054084123,-4.35919189453125,0.8863365054130554,-0.5004876852035522,-0.05001391470432281,-0.07520642876625061,0.2929269671440125,XArbitraryZVertical,-0.2362525700644223,0.04038425967208863,0.02305938219916738,0.9705783505276487,0.1808427721261978,-0.2960856556892395,-0.9378855228424072,0,0,0,-1,-1,1163.108449375,unknown,2,2026-05-05T16:20:55.364+02:00,2026-05-05T16:12:27.330+02:00,645,0.8168712,0,0,506.8798,0,0,2026-05-05T16:20:39.892+02:00,799683665.7676581,0,0.009999275,100.7644,1,0.75,0
2026-05-05T16:21:06.717+02:00,1777990866.000405,53.23571364400311,10.40164763108864,18.92398,0,0.3080157,-1,-1,4.029364438188564,4.748651530191761,-9999,1174.456151125,0.1355133056640625,-0.12420654296875,-0.55169677734375,1174.451114125,0.07074472224090575,0.1089854162723216,-0.5177502275172604,-4.192224025726318,0.8918423056602478,-0.6082121729850769,-0.05253115296363831,0.01991859078407288,0.3694679141044617,XArbitraryZVertical,-0.2573153909281092,0.04357816592774739,0.02020168448767767,0.965133078967961,0.1908062845468521,-0.2544308602809906,-0.9480811953544617,0,0,0,-1,-1,1163.108449375,unknown,2,2026-05-05T16:20:55.364+02:00,2026-05-05T16:12:27.330+02:00,645,0.8168712,0,0,506.8798,0,0,2026-05-05T16:20:39.892+02:00,799683665.7676581,0,0.009999275,100.7644,1,0.75,0
2026-05-05T16:21:06.727+02:00,1777990866.000405,53.23571364400311,10.40164763108864,18.92398,0,0.3080157,-1,-1,4.029364438188564,4.748651530191761,-9999,1174.466225125,0.114227294921875,-0.1110382080078125,-0.53570556640625,1174.461188125,0.06838924792191461,0.1168483359874185,-0.5596167180185586,-4.055562496185303,0.9035199880599976,-0.7240244746208191,-0.06631295382976532,0.06654806435108185,0.4046285152435303,XArbitraryZVertical,-0.2774576822735175,0.04666157831681829,0.01668579089669548,0.9594590922998401,0.2010175585746765,-0.2137190699577332,-0.9559895992279053,0,0,0,-1,-1,1163.108449375,unknown,2,2026-05-05T16:20:55.364+02:00,2026-05-05T16:12:27.330+02:00,645,0.8168712,0,0,506.8798,0,0,2026-05-05T16:20:39.892+02:00,799683665.7676581,0,0.009999275,100.7644,1,0.75,0
2026-05-05T16:21:06.737+02:00,1777990866.000405,53.23571364400311,10.40164763108864,18.92398,0,0.3080157,-1,-1,4.029364438188564,4.748651530191761,-9999,1174.476298125,0.1033935546875,-0.1449737548828125,-0.4737091064453125,1174.471261125,0.06529887388852758,0.124329144866706,-0.6020298297276004,-4.274685382843018,0.9195165038108826,-0.791781485080719,-0.08384139835834503,0.06033825874328613,0.4131796956062317,XArbitraryZVertical,-0.2976959917098268,0.04963974993384188,0.01270616704360112,0.9532846889177107,0.2112980633974075,-0.1720478236675262,-0.9621604084968567,0,0,0,-1,-1,1163.108449375,unknown,2,2026-05-05T16:20:55.364+02:00,2026-05-05T16:12:27.330+02:00,645,0.8168712,0,0,506.8798,0,0,2026-05-05T16:20:39.892+02:00,799683665.7676581,0,0.009999275,100.7644,1,0.75,0
2026-05-05T16:21:06.747+02:00,1777990866.000405,53.23571364400311,10.40164763108864,18.92398,0,0.3080157,-1,-1,4.029364438188564,4.748651530191761,-9999,1174.486371125,0.10137939453125,-0.193756103515625,-0.3970489501953125,1174.481335125,0.06192512305112859,0.1317534183227392,-0.6482910932972161,-4.788121700286865,0.9469356536865234,-0.9274157881736755,-0.1170358210802078,0.00380273163318634,0.4559625387191772,XArbitraryZVertical,-0.3195875116800381,0.05253241171537679,0.008325352327917906,0.9460629238465184,0.2216500788927078,-0.1262544989585876,-0.9669183492660522,0,0,0,-1,-1,1163.108449375,unknown,2,2026-05-05T16:20:55.364+02:00,2026-05-05T16:12:27.330+02:00,645,0.8168712,0,0,506.8798,0,0,2026-05-05T16:20:39.892+02:00,799683665.7676581,0,0.009999275,100.7644,1,0.75,0
2026-05-05T16:21:06.757+02:00,1777990866.000405,53.23571364400311,10.40164763108864,18.92398,0,0.3080157,-1,-1,4.029364438188564,4.748651530191761,-9999,1174.496445125,0.0763702392578125,-0.1949005126953125,-0.36358642578125,1174.491408125,0.05826873912095396,0.1391689862898824,-0.7003770765530352,-5.406269073486328,0.9826755523681641,-1.019843816757202,-0.1270217597484589,-0.0971081331372261,0.5378821492195129,XArbitraryZVertical,-0.3440018546474806,0.05531115145751302,0.003452751263580594,0.9373321510779027,0.2320327311754227,-0.07440062612295151,-0.9698584079742432,0,0,0,-1,-1,1163.108449375,unknown,2,2026-05-05T16:20:55.364+02:00,2026-05-05T16:12:27.330+02:00,645,0.8168712,0,0,506.8798,0,0,2026-05-05T16:20:39.892+02:00,799683665.7676581,0,0.009999275,100.7644,1,0.75,0
2026-05-05T16:21:06.767+02:00,1777990866.000405,53.23571364400311,10.40164763108864,18.92398,0,0.3080157,-1,-1,4.029364438188564,4.748651530191761,-9999,1174.506518125,0.0487060546875,-0.1434783935546875,-0.35699462890625,1174.501481125,0.05529341688111932,0.1471942711250501,-0.7590650327291439,-6.056773662567139,1.004013299942017,-1.080252766609192,-0.1524362862110138,-0.1866437047719955,0.5962672233581543,XArbitraryZVertical,-0.3712301364622794,0.05805831674415581,-0.001625174684005457,0.9267226293792715,0.2422189861536026,-0.01584039814770222,-0.9700922966003418,0,0,0,-1,-1,1163.108449375,unknown,2,2026-05-05T16:20:55.364+02:00,2026-05-05T16:12:27.330+02:00,645,0.8168712,0,0,506.8798,0,0,2026-05-05T16:20:39.892+02:00,799683665.7676581,0,0.009999275,100.7644,1,0.75,0
2026-05-05T16:21:06.777+02:00,1777990866.000405,53.23571364400311,10.40164763108864,18.92398,0,0.3080157,-1,-1,4.029364438188564,4.748651530191761,-9999,1174.516592125,0.01202392578125,-0.0585479736328125,-0.352294921875,1174.511555125,0.05339696519681997,0.1559392756862416,-0.8235682437164958,-6.527915477752686,0.9990729093551636,-1.106025695800781,-0.1886116564273834,-0.2229473739862442,0.6058590412139893,XArbitraryZVertical,-0.4007922330148662,0.06070199764345361,-0.006774750383988895,0.9141307632378702,0.251813530921936,0.04846315085887909,-0.9665615558624268,0,0,0,-1,-1,1163.108449375,unknown,2,2026-05-05T16:20:55.364+02:00,2026-05-05T16:12:27.330+02:00,645,0.8168712,0,0,506.8798,0,0,2026-05-05T16:20:39.892+02:00,799683665.7676581,0,0.009999275,100.7644,1,0.75,0
2026-05-05T16:21:06.787+02:00,1777990866.000405,53.23571364400311,10.40164763108864,18.92398,0,0.3080157,-1,-1,4.029364438188564,4.748651530191761,-9999,1174.526665125,-0.0113677978515625,0.0327911376953125,-0.346588134765625,1174.521628125,0.052668520673476,0.1653839966213207,-0.8916141898286968,-6.7590012550354,0.9777958393096924,-1.152345538139343,-0.2292356193065643,-0.2196612656116486,0.6049820184707642,XArbitraryZVertical,-0.4315261722878713,0.06318422152412326,-0.011926176654992,0.8998059477041717,0.2605008780956268,0.1159778162837029,-0.9584823846817017,0,0,0,-1,-1,1163.108449375,unknown,2,2026-05-05T16:20:55.364+02:00,2026-05-05T16:12:27.330+02:00,645,0.8168712,0,0,506.8798,0,0,2026-05-05T16:20:39.892+02:00,799683665.7676581,0,0.009999275,100.7644,1,0.75,0
2026-05-05T16:21:06.797+02:00,1777990866.000405,53.23571364400311,10.40164763108864,18.92398,0,0.3080157,-1,-1,4.029364438188564,4.748651530191761,-9999,1174.536738125,-0.02178955078125,0.1517333984375,-0.340545654296875,1174.531702125,0.05283900413202654,0.1749864962258205,-0.9610951588358954,-6.838249683380127,0.9114634394645691,-1.1614009141922,-0.2700347304344177,-0.1984606683254242,0.5957185029983521,XArbitraryZVertical,-0.4623827750784355,0.06529326847408171,-0.01704441730397624,0.8841088434025398,0.2677611708641052,0.1843005269765854,-0.9456940889358521,0,0,0,-1,-1,1163.108449375,unknown,2,2026-05-05T16:20:55.364+02:00,2026-05-05T16:12:27.330+02:00,645,0.8168712,0,0,506.8798,0,0,2026-05-05T16:20:39.892+02:00,799683665.7676581,0,0.009999275,100.7644,1,0.75,0
2026-05-05T16:21:06.807+02:00,1777990866.000405,53.23571364400311,10.40164763108864,18.92398,0,0.3080157,-1,-1,4.029364438188564,4.748651530191761,-9999,1174.546812125,-0.0147705078125,0.2337799072265625,-0.299224853515625,1174.541775125,0.05506241296020986,0.1857302514702812,-1.032186513979475,-7.152582168579102,0.8563405275344849,-1.134391665458679,-0.2929241359233856,-0.1619956195354462,0.5833045244216919,XArbitraryZVertical,-0.4933935773180056,0.06709716255308698,-0.02190526016209696,0.8669377504205955,0.2735454440116882,0.2531821429729462,-0.9279394745826721,0,0,0,-1,-1,1163.108449375,unknown,2,2026-05-05T16:20:55.364+02:00,2026-05-05T16:12:27.330+02:00,645,0.8168712,0,0,506.8798,0,0,2026-05-05T16:20:39.892+02:00,799683665.7676581,0,0.009999275,100.7644,1,0.75,0
2026-05-05T16:21:06.817+02:00,1777990866.000405,53.23571364400311,10.40164763108864,18.92398,0,0.3080157,-1,-1,4.029364438188564,4.748651530191761,-9999,1174.556885125,-0.0110931396484375,0.302001953125,-0.139190673828125,1174.551848125,0.06163881767581211,0.1998347452782747,-1.108160469733527,-7.763472080230713,0.7803674340248108,-1.157804846763611,-0.2964155673980713,-0.1251074969768524,0.5742107629776001,XArbitraryZVertical,-0.5259022833454094,0.06865406189902555,-0.0263867708841317,0.8473590176163731,0.2778608798980713,0.3252265453338623,-0.9038921594619751,0,0,0,-1,-1,1163.108449375,unknown,2,2026-05-05T16:20:55.364+02:00,2026-05-05T16:12:27.330+02:00,645,0.8168712,0,0,506.8798,0,0,2026-05-05T16:20:39.892+02:00,799683665.7676581,0,0.009999275,100.7644,1,0.75,0
2026-05-05T16:21:06.827+02:00,1777990866.000405,53.23571364400311,10.40164763108864,18.92398,0,0.3080157,-1,-1,4.029364438188564,4.748651530191761,-9999,1174.566959125,0.00286865234375,0.35101318359375,0.0084381103515625,1174.561922125,0.07460659932898431,0.2193366144091002,-1.189924301010855,-8.34874439239502,0.731487512588501,-1.188579797744751,-0.2927939891815186,-0.1334985792636871,0.6384273767471313,XArbitraryZVertical,-0.5601031600881287,0.0698017270467691,-0.03060003570892269,0.8249096108356865,0.2803733050823212,0.4005732238292694,-0.8723140954971313,0,0,0,-1,-1,1163.108449375,unknown,2,2026-05-05T16:20:55.364+02:00,2026-05-05T16:12:27.330+02:00,645,0.8168712,0,0,506.8798,0,0,2026-05-05T16:20:39.892+02:00,799683665.7676581,0,0.009999275,100.7644,1,0.75,0
2026-05-05T16:21:06.837+02:00,1777990866.000405,53.23571364400311,10.40164763108864,18.92398,0,0.3080157,-1,-1,4.029364438188564,4.748651530191761,-9999,1174.577032125,0.0608978271484375,0.4401092529296875,0.1156005859375,1174.571995125,0.09880352381500229,0.2489348971484733,-1.276747405025669,-8.757136344909668,0.6085591912269592,-1.268741250038147,-0.2883877456188202,-0.147180050611496,0.7801157236099243,XArbitraryZVertical,-0.5954820825171798,0.07037763107109121,-0.03453733166375367,0.7995344802709,0.2806972861289978,0.4776549339294434,-0.8324991464614868,0,0,0,-1,-1,1163.108449375,unknown,2,2026-05-05T16:20:55.364+02:00,2026-05-05T16:12:27.330+02:00,645,0.8168712,0,0,506.8798,0,0,2026-05-05T16:20:39.892+02:00,799683665.7676581,0,0.009999275,100.7644,1,0.75,0
2026-05-05T16:21:06.848+02:00,1777990866.000405,53.23571364400311,10.40164763108864,18.92398,0,0.3080157,-1,-1,4.029364438188564,4.748651530191761,-9999,1174.587105125,0.140899658203125,0.5848388671875,0.207366943359375,1174.582069125,0.1441529755307284,0.2980564858027564,-1.366020696416368,-8.8623046875,0.4029735624790192,-1.383380174636841,-0.2515906393527985,-0.1705684065818787,0.8441812992095947,XArbitraryZVertical,-0.6308085671620218,0.06992469540003861,-0.03822471961797884,0.7718355306989171,0.2779730558395386,0.5533809065818787,-0.7851755023002625,0,0,0,-1,-1,1163.108449375,unknown,2,2026-05-05T16:20:55.364+02:00,2026-05-05T16:12:27.330+02:00,645,0.8168712,0,0,506.8798,0,0,2026-05-05T16:20:39.892+02:00,799683665.7676581,0,0.009999275,100.7644,1,0.75,0
2026-05-05T16:21:06.858+02:00,1777990866.000405,53.23571364400311,10.40164763108864,18.92398,0,0.3080157,-1,-1,4.029364438188564,4.748651530191761,-9999,1174.597179125,0.2078399658203125,0.693939208984375,0.195343017578125,1174.592142125,0.2492923548688541,0.4047810754273282,-1.454502657295312,-8.744714736938477,0.1676683723926544,-1.523812055587769,-0.1707087457180023,-0.1112860441207886,0.9025864005088806,XArbitraryZVertical,-0.6648640782779993,0.06802606959775015,-0.04162453713469974,0.7426949610807836,0.2714930474758148,0.6247748136520386,-0.7320846915245056,0,0,0,-1,-1,1163.108449375,unknown,2,2026-05-05T16:20:55.364+02:00,2026-05-05T16:12:27.330+02:00,645,0.8168712,0,0,506.8798,0,0,2026-05-05T16:20:39.892+02:00,799683665.7676581,0,0.009999275,100.7644,1,0.75,0
2026-05-05T16:21:06.868+02:00,1777990866.000405,53.23571364400311,10.40164763108864,18.92398,0,0.3080157,-1,-1,4.029364438188564,4.748651530191761,-9999,1174.607252125,0.24127197265625,0.7806243896484375,0.124114990234375,1174.602216125,0.8325166097856372,0.9876551572568928,-1.535077971544823,-8.553031921386719,0.01317652221769094,-1.650634407997131,-0.08581241965293884,-0.04660964012145996,0.8900507092475891,XArbitraryZVertical,-0.6971187572793165,0.06475630923057284,-0.04481575219234424,0.7126174353912129,0.2615326046943665,0.6904237270355225,-0.6744744181632996,0,0,0,-1,-1,1163.108449375,unknown,2,2026-05-05T16:20:55.364+02:00,2026-05-05T16:12:27.330+02:00,645,0.8168712,0,0,506.8798,0,0,2026-05-05T16:20:39.892+02:00,799683665.7676581,0,0.009999275,100.7644,1,0.75,0
2026-05-05T16:21:06.878+02:00,1777990866.000405,53.23571364400311,10.40164763108864,18.92398,0,0.3080157,-1,-1,4.029364438188564,4.748651530191761,-9999,1174.617326125,0.2212677001953125,0.8673095703125,0.037933349609375,1174.612289125,2.794672604804087,2.948501508539932,-1.504992034258566,-8.152572631835938,-0.04997821152210236,-1.770847916603088,-0.01700027287006378,-0.01112955808639526,0.7748482823371887,XArbitraryZVertical,-0.7270533184229607,0.06050843830128191,-0.04809907771259582,0.6822160448333866,0.2489949017763138,0.749136209487915,-0.6138375401496887,0,0,0,-1,-1,1163.108449375,unknown,2,2026-05-05T16:20:55.364+02:00,2026-05-05T16:12:27.330+02:00,645,0.8168712,0,0,506.8798,0,0,2026-05-05T16:20:39.892+02:00,799683665.7676581,0,0.009999275,100.7644,1,0.75,0
2026-05-05T16:21:06.888+02:00,1777990866.000405,53.23571364400311,10.40164763108864,18.92398,0,0.3080157,-1,-1,4.029364438188564,4.748651530191761,-9999,1174.627399125,0.19854736328125,0.9910430908203125,-0.086517333984375,1174.622362125,3.028445287596105,-3.102787849965918,-1.426631061891183,-7.642235279083252,-0.08864731341600418,-1.868620276451111,0.00088520348072052,0.02258753776550293,0.6377578973770142,XArbitraryZVertical,-0.7541268086697007,0.05542470941524548,-0.05163961170838251,0.6523451638156641,0.234298512339592,0.7999528050422668,-0.5524306893348694,0,0,0,-1,-1,1163.108449375,unknown,2,2026-05-05T16:20:55.364+02:00,2026-05-05T16:12:27.330+02:00,645,0.8168712,0,0,506.8798,0,0,2026-05-05T16:20:39.892+02:00,799683665.7676581,0,0.009999275,100.7644,1,0.75,0
2026-05-05T16:21:06.898+02:00,1777990866.000405,53.23571364400311,10.40164763108864,18.92398,0,0.3080157,-1,-1,4.029364438188564,4.748651530191761,-9999,1174.637473125,0.199737548828125,1.113739013671875,-0.14599609375,1174.632436125,3.102394698657705,-3.03089468662888,-1.350413439657669,-7.258530139923096,-0.08891628682613373,-1.9192955493927,-0.01030102372169495,0.08051460981369019,0.4689193665981293,XArbitraryZVertical,-0.7785550905104681,0.04984618402215585,-0.0554048097297538,0.623135341112015,0.2181714773178101,0.8433898091316223,-0.4910140633583069,0,0,0,-1,-1,1163.108449375,unknown,2,2026-05-05T16:20:55.364+02:00,2026-05-05T16:12:27.330+02:00,645,0.8168712,0,0,506.8798,0,0,2026-05-05T16:20:39.892+02:00,799683665.7676581,0,0.009999275,100.7644,1,0.75,0
2026-05-05T16:21:06.908+02:00,1777990866.000405,53.23571364400311,10.40164763108864,18.92398,0,0.3080157,-1,-1,4.029364438188564,4.748651530191761,-9999,1174.647546125,0.222991943359375,1.153900146484375,-0.062835693359375,1174.642509125,-3.139935873111832,-2.99234357814158,-1.276843495741041,-6.981451988220215,-0.1073522865772247,-2.022249460220337,-0.005312353372573853,0.1778712272644043,0.295149564743042,XArbitraryZVertical,-0.8008387680833663,0.04376624960459554,-0.05937835161394541,0.5943197144248851,0.200609564781189,0.8805088400840759,-0.4294878542423248,0,0,0,-1,-1,1163.108449375,unknown,2,2026-05-05T16:20:55.364+02:00,2026-05-05T16:12:27.330+02:00,645,0.8168712,0,0,506.8798,0,0,2026-05-05T16:20:39.892+02:00,799683665.7676581,0,0.009999275,100.7644,1,0.75,0
2026-05-05T16:21:06.918+02:00,1777990866.000405,53.23571364400311,10.40164763108864,18.92398,0,0.3080157,-1,-1,4.029364438188564,4.748651530191761,-9999,1174.657619125,0.2691650390625,1.128814697265625,0.0529022216796875,1174.652583125,-3.109721861579725,-2.965036823669103,-1.205589786166488,-6.654801368713379,-0.17263063788414,-2.193816184997559,0.02810506522655487,0.2355172634124756,0.2510111033916473,XArbitraryZVertical,-0.8212390018828936,0.03690239160862348,-0.06361673669895716,0.5658248056396298,0.1810776591300964,0.9119741320610046,-0.3681222796440125,0,0,0,-1,-1,1163.108449375,unknown,2,2026-05-05T16:20:55.364+02:00,2026-05-05T16:12:27.330+02:00,645,0.8168712,0,0,506.8798,0,0,2026-05-05T16:20:39.892+02:00,799683665.7676581,0,0.009999275,100.7644,1,0.75,0
2026-05-05T16:21:06.928+02:00,1777990866.000405,53.23571364400311,10.40164763108864,18.92398,0,0.3080157,-1,-1,4.029364438188564,4.748651530191761,-9999,1174.667693125,0.326171875,1.127456665039062,0.1158905029296875,1174.662656125,-3.083571770685432,-2.943311293423675,-1.137000784164999,-6.343331336975098,-0.3075154721736908,-2.32746958732605,0.08396455645561218,0.2043994069099426,0.3075771629810333,XArbitraryZVertical,-0.839764217941077,0.02894053373316255,-0.06783548533615484,0.5379191835215519,0.159199520945549,0.9379956722259521,-0.3079281449317932,0,0,0,-1,-1,1163.108449375,unknown,2,2026-05-05T16:20:55.364+02:00,2026-05-05T16:12:27.330+02:00,645,0.8168712,0,0,506.8798,0,0,2026-05-05T16:20:39.892+02:00,799683665.7676581,0,0.009999275,100.7644,1,0.75,0
2026-05-05T16:21:06.938+02:00,1777990866.000405,53.23571364400311,10.40164763108864,18.92398,0,0.3080157,-1,-1,4.029364438188564,4.748651530191761,-9999,1174.677766125,0.3444366455078125,1.227249145507812,0.1992950439453125,1174.672729125,-3.0608405702831,-2.926809751519801,-1.070037044332802,-6.278713703155518,-0.4529501795768738,-2.385715961456299,0.1631215512752533,0.1602373123168945,0.3349008560180664,XArbitraryZVertical,-0.8568122399532703,0.02008017029869964,-0.0716700371898077,0.5102284699492826,0.135599747300148,0.9591474533081055,-0.248291939496994,0,0,0,-1,-1,1163.108449375,unknown,2,2026-05-05T16:20:55.364+02:00,2026-05-05T16:12:27.330+02:00,645,0.8168712,0,0,506.8798,0,0,2026-05-05T16:20:39.892+02:00,799683665.7676581,0,0.009999275,100.7644,1,0.75,0
2026-05-05T16:21:06.948+02:00,1777990866.000405,53.23571364400311,10.40164763108864,18.92398,0,0.3080157,-1,-1,4.029364438188564,4.748651530191761,-9999,1174.687840125,0.317352294921875,1.393646240234375,0.3021087646484375,1174.682803125,-3.041263753847325,-2.915183644020019,-1.003413378950237,-6.116755962371826,-0.5834919214248657,-2.440309286117554,0.2318532466888428,0.1852434277534485,0.3388869166374207,XArbitraryZVertical,-0.8727794283425029,0.01057555612103587,-0.07495637256621586,0.4822094206799215,0.1109354496002197,0.9758588671684265,-0.1881300657987595,0,0,0,-1,-1,1163.108449375,unknown,2,2026-05-05T16:20:55.364+02:00,2026-05-05T16:12:27.330+02:00,645,0.8168712,0,0,506.8798,0,0,2026-05-05T16:20:39.892+02:00,799683665.7676581,0,0.009999275,100.7644,1,0.75,0
2026-05-05T16:21:06.958+02:00,1777990866.000405,53.23571364400311,10.40164763108864,18.92398,0,0.3080157,-1,-1,4.029364438188564,4.748651530191761,-9999,1174.697913125,0.266998291015625,1.473312377929688,0.3239288330078125,1174.692876125,-3.023047833381352,-2.906765490679496,-0.938130709656999,-5.966396808624268,-0.7134991884231567,-2.498499631881714,0.2507602572441101,0.3260970711708069,0.385667622089386,XArbitraryZVertical,-0.8874310761109045,0.0003865624553832951,-0.07771370734603024,0.4543418325034261,0.0853908583521843,0.9880049824714661,-0.1286638081073761,0,0,0,-1,-1,1163.108449375,unknown,2,2026-05-05T16:20:55.364+02:00,2026-05-05T16:12:27.330+02:00,645,0.8168712,0,0,506.8798,0,0,2026-05-05T16:20:39.892+02:00,799683665.7676581,0,0.009999275,100.7644,1,0.75,0
2026-05-05T16:21:06.969+02:00,1777990866.000405,53.23571364400311,10.40164763108864,18.92398,0,0.3080157,-1,-1,4.029364438188564,4.748651530191761,-9999,1174.707986125,0.22918701171875,1.567291259765625,0.3201141357421875,1174.702950125,-3.004867176194445,-2.900119655663706,-0.8765316098700328,-5.357663154602051,-0.809704065322876,-2.550827980041504,0.2334877550601959,0.4460186958312988,0.3892563581466675,XArbitraryZVertical,-0.9002890640907547,-0.01041008724570841,-0.08002796784443666,0.4277462571072826,0.05940469354391098,0.9956011176109314,-0.0724533423781395,0,0,0,-1,-1,1163.108449375,unknown,2,2026-05-05T16:20:55.364+02:00,2026-05-05T16:12:27.330+02:00,645,0.8168712,0,0,506.8798,0,0,2026-05-05T16:20:39.892+02:00,799683665.7676581,0,0.009999275,100.7644,1,0.75,0
2026-05-05T16:21:06.978+02:00,1777990866.000405,53.23571364400311,10.40164763108864,18.92398,0,0.3080157,-1,-1,4.029364438188564,4.748651530191761,-9999,1174.718060125,0.182464599609375,1.647140502929688,0.193359375,1174.713023125,-2.98458403540707,-2.89360579573626,-0.8215144600397046,-4.604461193084717,-0.922690749168396,-2.670717477798462,0.2142311483621597,0.515933096408844,0.3558357954025269,XArbitraryZVertical,-0.9108509576518448,-0.02211616079192549,-0.08196477879835976,0.4039100326391098,0.03271709010004997,0.999203622341156,-0.02284322679042816,0,0,0,-1,-1,1163.108449375,unknown,2,2026-05-05T16:20:55.364+02:00,2026-05-05T16:12:27.330+02:00,645,0.8168712,0,0,506.8798,0,0,2026-05-05T16:20:39.892+02:00,799683665.7676581,0,0.009999275,100.7644,1,0.75,0
2026-05-05T16:21:06.989+02:00,1777990866.000405,53.23571364400311,10.40164763108864,18.92398,0,0.3080157,-1,-1,4.029364438188564,4.748651530191761,-9999,1174.728133125,0.1342926025390625,1.70501708984375,0.0799407958984375,1174.723096125,-2.962326977396663,-2.887275065240069,-0.7740036617888518,-3.737244606018066,-0.9851717352867126,-2.650533676147461,0.2011568993330002,0.6143965721130371,0.2501112222671509,XArbitraryZVertical,-0.9191650405626718,-0.03455358256921386,-0.08345564301241133,0.3833758220725888,0.005843829829245806,0.9998003244400024,0.01911485381424427,0,0,0,-1,-1,1163.108449375,unknown,2,2026-05-05T16:20:55.364+02:00,2026-05-05T16:12:27.330+02:00,645,0.8168712,0,0,506.8798,0,0,2026-05-05T16:20:39.892+02:00,799683665.7676581,0,0.009999275,100.7644,1,0.75,0
2026-05-05T16:21:06.999+02:00,1777990866.000405,53.23571364400311,10.40164763108864,18.92398,0,0.3080157,-1,-1,4.029364438188564,4.748651530191761,-9999,1174.738207125,0.10235595703125,1.785995483398438,0.0445098876953125,1174.733170125,-2.938539853715759,-2.881495791626679,-0.7354932876832886,-2.764691114425659,-1.108106732368469,-2.632320880889893,0.1769791543483734,0.6742280125617981,0.07014596462249756,XArbitraryZVertical,-0.925220900068945,-0.04739461660469629,-0.08425872983678313,0.3669068815624094,-0.02031716704368591,0.9984404444694519,0.05200071632862091,0,0,0,-1,-1,1163.108449375,unknown,2,2026-05-05T16:20:55.364+02:00,2026-05-05T16:12:27.330+02:00,645,0.8168712,0,0,506.8798,0,0,2026-05-05T16:20:39.892+02:00,799683665.7676581,0,0.009999275,100.7644,1,0.75,0
2026-05-05T16:21:07.009+02:00,1777990866.000405,53.23571364400311,10.40164763108864,18.92398,0,0.3080157,-1,-1,4.029364438188564,4.748651530191761,-9999,1174.748280125,0.059112548828125,1.82403564453125,0.0009918212890625,1174.743243125,-2.912466856107516,-2.876066449624509,-0.7063639948709254,-1.836947798728943,-1.221206068992615,-2.616086959838867,0.1642494052648544,0.7496935129165649,-0.0154334232211113,XArbitraryZVertical,-0.9291575650043935,-0.06082704239031524,-0.08419777014071098,0.3547918502391464,-0.04597853869199753,0.9960951805114746,0.0753699466586113,0,0,0,-1,-1,1163.108449375,unknown,2,2026-05-05T16:20:55.364+02:00,2026-05-05T16:12:27.330+02:00,645,0.8168712,0,0,506.8798,0,0,2026-05-05T16:20:39.892+02:00,799683665.7676581,0,0.009999275,100.7644,1,0.75,0
2026-05-05T16:21:07.019+02:00,1777990866.000405,53.23571364400311,10.40164763108864,18.92398,0,0.3080157,-1,-1,4.029364438188564,4.748651530191761,-9999,1174.758353125,0.044921875,1.806289672851562,-0.0232086181640625,1174.753317125,-2.884842476589482,-2.871160711850514,-0.6855098081535639,-1.038369655609131,-1.316750407218933,-2.544668197631836,0.1516950130462646,0.8204962611198425,-0.06732810288667679,XArbitraryZVertical,-0.9313563015634213,-0.07454277192153515,-0.08328477282239279,0.3465291902750132,-0.07074712216854095,0.9933769702911377,0.09053678810596466,0,0,0,-1,-1,1163.108449375,unknown,2,2026-05-05T16:20:55.364+02:00,2026-05-05T16:12:27.330+02:00,645,0.8168712,0,0,506.8798,0,0,2026-05-05T16:20:39.892+02:00,799683665.7676581,0,0.009999275,100.7644,1,0.75,0
2026-05-05T16:21:07.029+02:00,1777990866.000405,53.23571364400311,10.40164763108864,18.92398,0,0.3080157,-1,-1,4.029364438188564,4.748651530191761,-9999,1174.768427125,0.0388641357421875,1.754608154296875,-0.0689544677734375,1174.763390125,-2.855714744582492,-2.866502064517105,-0.6721898432096686,-0.2999006509780884,-1.390100598335266,-2.501404047012329,0.1412787735462189,0.8290318846702576,-0.1114073991775513,XArbitraryZVertical,-0.9320386114988881,-0.08845355970701153,-0.08158286364028609,0.3417956749942086,-0.09467844665050507,0.9906396865844727,0.09833061695098877,0,0,0,-1,-1,1163.108449375,unknown,2,2026-05-05T16:20:55.364+02:00,2026-05-05T16:12:27.330+02:00,645,0.8168712,0,0,506.8798,0,0,2026-05-05T16:20:39.892+02:00,799683665.7676581,0,0.009999275,100.7644,1,0.75,0
2026-05-05T16:21:07.039+02:00,1777990866.000405,53.23571364400311,10.40164763108864,18.92398,0,0.3080157,-1,-1,4.029364438188564,4.748651530191761,-9999,1174.778500125,0.02264404296875,1.701736450195312,-0.120025634765625,1174.773464125,-2.825263647241181,-2.862127801423834,-0.6654758375652436,0.2893212139606476,-1.496061086654663,-2.430673837661743,0.1623643040657043,0.7949017286300659,-0.1413397938013077,XArbitraryZVertical,-0.9314225004227992,-0.1024911139501793,-0.07905082814709818,0.3401450587712258,-0.1177933663129807,0.988011360168457,0.09979011118412018,0,0,0,-1,-1,1163.108449375,unknown,2,2026-05-05T16:20:55.364+02:00,2026-05-05T16:12:27.330+02:00,645,0.8168712,0,0,506.8798,0,0,2026-05-05T16:20:39.892+02:00,799683665.7676581,0,0.009999275,100.7644,1,0.75,0
2026-05-05T16:21:07.049+02:00,1777990866.000405,53.23571364400311,10.40164763108864,18.92398,0,0.3080157,-1,-1,4.029364438188564,4.748651530191761,-9999,1174.788574125,0.010345458984375,1.585067749023438,-0.122711181640625,1174.783537125,-2.794021477876888,-2.858609261331747,-0.6630157511030551,0.5456706881523132,-1.628370642662048,-2.399259328842163,0.1697447746992111,0.7432165145874023,-0.1951642036437988,XArbitraryZVertical,-0.9299394758098903,-0.116657328702172,-0.07561822121501595,0.3404196380947531,-0.1402342617511749,0.9853142499923706,0.0974164754152298,0,0,0,-1,-1,1163.108449375,unknown,2,2026-05-05T16:20:55.364+02:00,2026-05-05T16:12:27.330+02:00,645,0.8168712,0,0,506.8798,0,0,2026-05-05T16:20:39.892+02:00,799683665.7676581,0,0.009999275,100.7644,1,0.75,0
2026-05-05T16:21:07.059+02:00,1777990866.000405,53.23571364400311,10.40164763108864,18.92398,0,0.3080157,-1,-1,4.029364438188564,4.748651530191761,-9999,1174.798647125,-0.030029296875,1.412017822265625,-0.0895538330078125,1174.793610125,-2.763153958714852,-2.856535917867359,-0.6610028539633427,0.3823964297771454,-1.71762490272522,-2.351776123046875,0.1798245310783386,0.6751367449760437,-0.224265456199646,XArbitraryZVertical,-0.9282474668442855,-0.1308348770514231,-0.07154034010135642,0.3407651279263739,-0.1621548384428024,0.9821659922599792,0.09516086429357529,0,0,0,-1,-1,1163.108449375,unknown,2,2026-05-05T16:20:55.364+02:00,2026-05-05T16:12:27.330+02:00,645,0.8168712,0,0,506.8798,0,0,2026-05-05T16:20:39.892+02:00,799683665.7676581,0,0.009999275,100.7644,1,0.75,0
2026-05-05T16:21:07.071+02:00,1777990866.000405,53.23571364400311,10.40164763108864,18.92398,0,0.3080157,-1,-1,4.029364438188564,4.748651530191761,-9999,1174.808720125,-0.0809326171875,1.267440795898438,-0.07611083984375,1174.803684125,-2.733970608767281,-2.856284107137143,-0.6560736207768859,-0.0512964241206646,-1.778787016868591,-2.319545745849609,0.1771302372217178,0.51836097240448,-0.2033482789993286,XArbitraryZVertical,-0.9269366624532505,-0.144806514159782,-0.06725540444458404,0.3395530631550195,-0.1835389137268066,0.9782667756080627,0.0964757427573204,0,0,0,-1,-1,1163.108449375,unknown,2,2026-05-05T16:20:55.364+02:00,2026-05-05T16:12:27.330+02:00,645,0.8168712,0,0,506.8798,0,0,2026-05-05T16:20:39.892+02:00,799683665.7676581,0,0.009999275,100.7644,1,0.75,0
2026-05-05T16:21:07.080+02:00,1777990866.000405,53.23571364400311,10.40164763108864,18.92398,0,0.3080157,-1,-1,4.029364438188564,4.748651530191761,-9999,1174.818794125,-0.1269073486328125,1.154861450195312,-0.093658447265625,1174.813757125,-2.707063885202867,-2.858126830952733,-0.6465992276599172,-0.5773918628692627,-1.819267630577087,-2.274029016494751,0.1485957354307175,0.3638516068458557,-0.1809542179107666,XArbitraryZVertical,-0.9262905341558562,-0.158519548987504,-0.06299595126417384,0.3359895023437054,-0.204366609454155,0.9734591245651245,0.1030123680830002,0,0,0,-1,-1,1163.108449375,unknown,2,2026-05-05T16:20:55.364+02:00,2026-05-05T16:12:27.330+02:00,645,0.8168712,0,0,506.8798,0,0,2026-05-05T16:20:39.892+02:00,799683665.7676581,0,0.009999275,100.7644,1,0.75,0
2026-05-05T16:21:07.090+02:00,1777990866.000405,53.23571364400311,10.40164763108864,18.92398,0,0.3080157,-1,-1,4.029364438188564,4.748651530191761,-9999,1174.828867125,-0.1761016845703125,1.15966796875,-0.1132354736328125,1174.823831125,-2.682674478558153,-2.862181641305434,-0.6330914053495494,-0.8399720788002014,-1.848501682281494,-2.230242252349854,0.1197987347841263,0.235042929649353,-0.1968276351690292,XArbitraryZVertical,-0.9262513539050916,-0.1718334979287808,-0.05875212809984442,0.3302726868613514,-0.2242299020290375,0.9678074717521667,0.1143233999609947,0,0,0,-1,-1,1163.108449375,unknown,2,2026-05-05T16:20:55.364+02:00,2026-05-05T16:12:27.330+02:00,645,0.8168712,0,0,506.8798,0,0,2026-05-05T16:20:39.892+02:00,799683665.7676581,0,0.009999275,100.7644,1,0.75,0
2026-05-05T16:21:07.100+02:00,1777990867.00041,53.23571351827457,10.40164729581252,18.92636,0,0.3080157,-1,-1,4.029364438188565,4.748651530191762,-9999,1174.838941125,-0.2263641357421875,1.203689575195312,-0.0749053955078125,1174.833904125,-2.659352431576345,-2.867042979759242,-0.6177632699501364,-1.04643976688385,-1.829944014549255,-2.191364526748657,0.09292563796043396,0.1797916293144226,-0.2347314208745956,XArbitraryZVertical,-0.9263451396968764,-0.1849532494813527,-0.05468864251427327,0.323552713132544,-0.24357570707798,0.9614132642745972,0.127889409661293,0,0,0,-1,-1,1163.108449375,unknown,2,2026-05-05T16:20:55.364+02:00,2026-05-05T16:12:27.330+02:00,645,0.8168712,0,0,506.8798,0,0,2026-05-05T16:20:39.892+02:00,799683665.7676581,0,0.009999275,100.7644,1,0.75,0
2026-05-05T16:21:07.110+02:00,1777990867.00041,53.23571351827457,10.40164729581252,18.92636,0,0.3080157,-1,-1,4.029364438188565,4.748651530191762,-9999,1174.849014125,-0.2822418212890625,1.237197875976562,-0.09527587890625,1174.843977125,-2.636966976812693,-2.872742727288631,-0.6015503383613248,-1.066906929016113,-1.823952198028564,-2.210935831069946,0.06138354539871216,0.2302979826927185,-0.2430959790945053,XArbitraryZVertical,-0.9264347612922728,-0.1978381749893144,-0.05065850282608476,0.3162476947921684,-0.262173980474472,0.954394519329071,0.1428152322769165,0,0,0,-1,-1,1163.108449375,unknown,2,2026-05-05T16:20:55.364+02:00,2026-05-05T16:12:27.330+02:00,645,0.8168712,0,0,506.8798,0,0,2026-05-05T16:20:39.892+02:00,799683665.7676581,0,0.009999275,100.7644,1,0.75,0
2026-05-05T16:21:07.120+02:00,1777990867.00041,53.23571351827457,10.40164729581252,18.92636,0,0.3080157,-1,-1,4.029364438188565,4.748651530191762,-9999,1174.859088125,-0.343658447265625,1.222900390625,-0.1381683349609375,1174.854051125,-2.614624688518006,-2.877696605584712,-0.5857375943459069,-1.045626163482666,-1.681795358657837,-2.130212783813477,0.02822345495223999,0.2767438292503357,-0.2268459647893906,XArbitraryZVertical,-0.9262349918401752,-0.2105164176557754,-0.04707907323879804,0.3091202632802005,-0.2804970443248749,0.9468585252761841,0.1574185490608215,0,0,0,-1,-1,1163.108449375,unknown,2,2026-05-05T16:20:55.364+02:00,2026-05-05T16:12:27.330+02:00,645,0.8168712,0,0,506.8798,0,0,2026-05-05T16:20:39.892+02:00,799683665.7676581,0,0.009999275,100.7644,1,0.75,0
2026-05-05T16:21:07.130+02:00,1777990867.00041,53.23571351827457,10.40164729581252,18.92636,0,0.3080157,-1,-1,4.029364438188565,4.748651530191762,-9999,1174.869161125,-0.3767547607421875,1.290725708007812,-0.2636260986328125,1174.864124125,-2.593546621711345,-2.882633825767491,-0.5700760312452716,-1.041219711303711,-1.588116765022278,-2.083019733428955,-0.01734650135040283,0.2937567234039307,-0.2900582551956177,XArbitraryZVertical,-0.9259381902902908,-0.2225615696123135,-0.04382921473078526,0.3019669463191201,-0.2976864874362946,0.9390162229537964,0.1721383929252625,0,0,0,-1,-1,1163.108449375,unknown,2,2026-05-05T16:20:55.364+02:00,2026-05-05T16:12:27.330+02:00,645,0.8168712,0,0,506.8798,0,0,2026-05-05T16:20:39.892+02:00,799683665.7676581,0,0.009999275,100.7644,1,0.75,0
2026-05-05T16:21:07.140+02:00,1777990867.00041,53.23571351827457,10.40164729581252,18.92636,0,0.3080157,-1,-1,4.029364438188565,4.748651530191762,-9999,1174.879234125,-0.3830413818359375,1.348953247070312,-0.3302764892578125,1174.874198125,-2.573347249241623,-2.887237210406433,-0.5546649337001489,-1.035131812095642,-1.469066500663757,-1.952215194702148,-0.05006518959999084,0.3111523389816284,-0.3786007165908813,XArbitraryZVertical,-0.9255072378012122,-0.2340928928354821,-0.0409698939920836,0.2948869535247416,-0.3140400052070618,0.9308671951293945,0.186721459031105,0,0,0,-1,-1,1163.108449375,unknown,2,2026-05-05T16:20:55.364+02:00,2026-05-05T16:12:27.330+02:00,645,0.8168712,0,0,506.8798,0,0,2026-05-05T16:20:39.892+02:00,799683665.7676581,0,0.009999275,100.7644,1,0.75,0
2026-05-05T16:21:07.150+02:00,1777990867.00041,53.23571351827457,10.40164729581252,18.92636,0,0.3080157,-1,-1,4.029364438188565,4.748651530191762,-9999,1174.889308125,-0.3683013916015625,1.365097045898438,-0.2747802734375,1174.884271125,-2.554902074967541,-2.891960665268254,-0.5399072703415758,-1.019334197044373,-1.372358322143555,-1.829017996788025,-0.05345043540000916,0.4099149703979492,-0.5158724784851074,XArbitraryZVertical,-0.9250350227002433,-0.2447337799454113,-0.03834376773315014,0.2880023305948546,-0.3288127183914185,0.9227722883224487,0.200931116938591,0,0,0,-1,-1,1163.108449375,unknown,2,2026-05-05T16:20:55.364+02:00,2026-05-05T16:12:27.330+02:00,645,0.8168712,0,0,506.8798,0,0,2026-05-05T16:20:39.892+02:00,799683665.7676581,0,0.009999275,100.7644,1,0.75,0
2026-05-05T16:21:07.160+02:00,1777990867.00041,53.23571351827457,10.40164729581252,18.92636,0,0.3080157,-1,-1,4.029364438188565,4.748651530191762,-9999,1174.899381125,-0.3715362548828125,1.3311767578125,-0.1990814208984375,1174.894344125,-2.537520448611991,-2.896565211914296,-0.5260322822854864,-0.9011592864990234,-1.303744912147522,-1.723358631134033,-0.03511416912078857,0.4439458847045898,-0.5275439023971558,XArbitraryZVertical,-0.9244410988469408,-0.2547470998865535,-0.03590362343529868,0.2814666529774413,-0.3424797654151917,0.9147270321846008,0.2144335955381393,0,0,0,-1,-1,1163.108449375,unknown,2,2026-05-05T16:20:55.364+02:00,2026-05-05T16:12:27.330+02:00,645,0.8168712,0,0,506.8798,0,0,2026-05-05T16:20:39.892+02:00,799683665.7676581,0,0.009999275,100.7644,1,0.75,0
2026-05-05T16:21:07.170+02:00,1777990867.00041,53.23571351827457,10.40164729581252,18.92636,0,0.3080157,-1,-1,4.029364438188565,4.748651530191762,-9999,1174.909455125,-0.3531494140625,1.305206298828125,-0.1613006591796875,1174.904418125,-2.520624964972463,-2.90113156647112,-0.5142388441323051,-0.6689436435699463,-1.273502826690674,-1.680384516716003,-0.01130056381225586,0.4489442110061646,-0.4572069346904755,XArbitraryZVertical,-0.9235549147219019,-0.2643007989504473,-0.03332046808516344,0.2758284984260317,-0.3551698327064514,0.9070281982421875,0.226173609495163,0,0,0,-1,-1,1163.108449375,unknown,2,2026-05-05T16:20:55.364+02:00,2026-05-05T16:12:27.330+02:00,645,0.8168712,0,0,506.8798,0,0,2026-05-05T16:20:39.892+02:00,799683665.7676581,0,0.009999275,100.7644,1,0.75,0
2026-05-05T16:21:07.180+02:00,1777990867.00041,53.23571351827457,10.40164729581252,18.92636,0,0.3080157,-1,-1,4.029364438188565,4.748651530191762,-9999,1174.919528125,-0.3213653564453125,1.264144897460938,-0.1186370849609375,1174.914491125,-2.503476809298862,-2.905490818656769,-0.5048642326642062,-0.4522024989128113,-1.256505012512207,-1.645816564559937,-0.001540720462799072,0.4114111661911011,-0.414762943983078,XArbitraryZVertical,-0.9222664629320699,-0.2736860140653067,-0.03049125538229638,0.2712766300027186,-0.3673710227012634,0.8996851444244385,0.2358079701662064,0,0,0,-1,-1,1163.108449375,unknown,2,2026-05-05T16:20:55.364+02:00,2026-05-05T16:12:27.330+02:00,645,0.8168712,0,0,506.8798,0,0,2026-05-05T16:20:39.892+02:00,799683665.7676581,0,0.009999275,100.7644,1,0.75,0
2026-05-05T16:21:07.190+02:00,1777990867.00041,53.23571351827457,10.40164729581252,18.92636,0,0.3080157,-1,-1,4.029364438188565,4.748651530191762,-9999,1174.929601125,-0.293243408203125,1.145828247070312,-0.07122802734375,1174.924565125,-2.486089920496036,-2.909738785741316,-0.4975596115641552,-0.2578521966934204,-1.245721578598022,-1.639929056167603,0.04404693841934204,0.4033908843994141,-0.3851604461669922,XArbitraryZVertical,-0.9206300325530057,-0.2829463808625525,-0.02740852711706137,0.267638867116514,-0.379160463809967,0.8926601409912109,0.2437114715576172,0,0,0,-1,-1,1163.108449375,unknown,2,2026-05-05T16:20:55.364+02:00,2026-05-05T16:12:27.330+02:00,645,0.8168712,0,0,506.8798,0,0,2026-05-05T16:20:39.892+02:00,799683665.7676581,0,0.009999275,100.7644,1,0.75,0
2026-05-05T16:21:07.200+02:00,1777990867.00041,53.23571351827457,10.40164729581252,18.92636,0,0.3080157,-1,-1,4.029364438188565,4.748651530191762,-9999,1174.939675125,-0.2780609130859375,1.017349243164062,-0.0522003173828125,1174.934638125,-2.468708226618825,-2.913965690576522,-0.4920517109161581,-0.0881979763507843,-1.246308207511902,-1.568047046661377,0.08283877372741699,0.3254900574684143,-0.3451259136199951,XArbitraryZVertical,-0.9187195759211831,-0.2920095590675205,-0.02408909490642841,0.264772675482201,-0.3904407322406769,0.8859814405441284,0.2501858174800873,0,0,0,-1,-1,1163.108449375,unknown,2,2026-05-05T16:20:55.364+02:00,2026-05-05T16:12:27.330+02:00,645,0.8168712,0,0,506.8798,0,0,2026-05-05T16:20:39.892+02:00,799683665.7676581,0,0.009999275,100.7644,1,0.75,0
2026-05-05T16:21:07.210+02:00,1777990867.00041,53.23571351827457,10.40164729581252,18.92636,0,0.3080157,-1,-1,4.029364438188565,4.748651530191762,-9999,1174.949748125,-0.2606201171875,0.974639892578125,-0.086639404296875,1174.944712125,-2.451356781985293,-2.918562169446476,-0.4892683812911382,0.2292521446943283,-1.290218949317932,-1.517380356788635,0.1173386871814728,0.1961610317230225,-0.3092730045318604,XArbitraryZVertical,-0.9164645784155174,-0.3008322231323474,-0.02017480606371848,0.2630318213712688,-0.4009385406970978,0.8800107836723328,0.2546160817146301,0,0,0,-1,-1,1163.108449375,unknown,2,2026-05-05T16:20:55.364+02:00,2026-05-05T16:12:27.330+02:00,645,0.8168712,0,0,506.8798,0,0,2026-05-05T16:20:39.892+02:00,799683665.7676581,0,0.009999275,100.7644,1,0.75,0
2026-05-05T16:21:07.220+02:00,1777990867.00041,53.23571351827457,10.40164729581252,18.92636,0,0.3080157,-1,-1,4.029364438188565,4.748651530191762,-9999,1174.959822125,-0.241180419921875,1.000961303710938,-0.0667572021484375,1174.954785125,-2.433756321242199,-2.923611837809482,-0.4906225965535454,0.7252090573310852,-1.345877766609192,-1.431858777999878,0.140082448720932,0.1076475381851196,-0.3221386671066284,XArbitraryZVertical,-0.9136955367095135,-0.3094255028609154,-0.0153090404508073,0.263024787846493,-0.4105750024318695,0.8751862645149231,0.255884975194931,0,0,0,-1,-1,1163.108449375,unknown,2,2026-05-05T16:20:55.364+02:00,2026-05-05T16:12:27.330+02:00,645,0.8168712,0,0,506.8798,0,0,2026-05-05T16:20:39.892+02:00,799683665.7676581,0,0.009999275,100.7644,1,0.75,0
2026-05-05T16:21:07.235+02:00,1777990867.00041,53.23571351827457,10.40164729581252,18.92636,0,0.3080157,-1,-1,4.029364438188565,4.748651530191762,-9999,1174.969895125,-0.2302398681640625,1.01226806640625,0.005126953125,1174.964858125,-2.415570142356903,-2.928822605959124,-0.4973518183494557,1.273377656936646,-1.396667957305908,-1.401742458343506,0.1679377555847168,0.1121289730072021,-0.3428451120853424,XArbitraryZVertical,-0.9102330470250506,-0.3177910948902098,-0.009309990375148205,0.2653260765794295,-0.419463574886322,0.8718339204788208,0.2528945505619049,0,0,0,-1,-1,1163.108449375,unknown,2,2026-05-05T16:20:55.364+02:00,2026-05-05T16:12:27.330+02:00,645,0.8168712,0,0,506.8798,0,0,2026-05-05T16:20:39.892+02:00,799683665.7676581,0,0.009999275,100.7644,1,0.75,0
2026-05-05T16:21:07.247+02:00,1777990867.00041,53.23571351827457,10.40164729581252,18.92636,0,0.3080157,-1,-1,4.029364438188565,4.748651530191762,-9999,1174.979968125,-0.253875732421875,0.9963226318359375,0.0009002685546875,1174.974932125,-2.396212296353415,-2.933873282415339,-0.5098148039631947,1.834576725959778,-1.466183662414551,-1.369479656219482,0.1960746049880981,0.1409611105918884,-0.2739691436290741,XArbitraryZVertical,-0.9059184776196789,-0.3261104831673477,-0.002115220199073582,0.2701099562161333,-0.4280540645122528,0.8698269724845886,0.2452979385852814,0,0,0,-1,-1,1163.108449375,unknown,2,2026-05-05T16:20:55.364+02:00,2026-05-05T16:12:27.330+02:00,645,0.8168712,0,0,506.8798,0,0,2026-05-05T16:20:39.892+02:00,799683665.7676581,0,0.009999275,100.7644,1,0.75,0
2026-05-05T16:21:07.250+02:00,1777990867.00041,53.23571351827457,10.40164729581252,18.92636,0,0.3080157,-1,-1,4.029364438188565,4.748651530191762,-9999,1174.990042125,-0.2589263916015625,0.940521240234375,-0.0483245849609375,1174.985005125,-2.376310386223393,-2.939138006048129,-0.5272512335919927,2.197864770889282,-1.541685342788696,-1.29168975353241,0.1965542137622833,0.1405386924743652,-0.2164601683616638,XArbitraryZVertical,-0.9008790644517022,-0.3341986309181301,0.006288487320270742,0.2769276095149154,-0.4360562562942505,0.8689829707145691,0.2339316010475159,0,0,0,-1,-1,1163.108449375,unknown,2,2026-05-05T16:20:55.364+02:00,2026-05-05T16:12:27.330+02:00,645,0.8168712,0,0,506.8798,0,0,2026-05-05T16:20:39.892+02:00,799683665.7676581,0,0.009999275,100.7644,1,0.75,0
2026-05-05T16:21:07.261+02:00,1777990867.00041,53.23571351827457,10.40164729581252,18.92636,0,0.3080157,-1,-1,4.029364438188565,4.748651530191762,-9999,1175.000115125,-0.2361297607421875,0.8629608154296875,-0.030364990234375,1174.995079125,-2.356437910154054,-2.944811551433163,-0.5468188912792372,2.231019258499146,-1.605852246284485,-1.2617027759552,0.1813975870609283,0.1017201542854309,-0.2511107921600342,XArbitraryZVertical,-0.8954525802383239,-0.3420728913775546,0.01541275592571213,0.2844528314150985,-0.4436198770999908,0.8684641718864441,0.2212951332330704,0,0,0,-1,-1,1163.108449375,unknown,2,2026-05-05T16:20:55.364+02:00,2026-05-05T16:12:27.330+02:00,645,0.8168712,0,0,506.8798,0,0,2026-05-05T16:20:39.892+02:00,799683665.7676581,0,0.009999275,100.7644,1,0.75,0
2026-05-05T16:21:07.271+02:00,1777990867.00041,53.23571351827457,10.40164729581252,18.92636,0,0.3080157,-1,-1,4.029364438188565,4.748651530191762,-9999,1175.010189125,-0.237396240234375,0.7089996337890625,-0.0361175537109375,1175.005152125,-2.336911559239983,-2.950913135716761,-0.565343559781382,1.989632844924927,-1.619736671447754,-1.26425564289093,0.2045747041702271,0.04179143905639648,-0.2548561990261078,XArbitraryZVertical,-0.8900140011161981,-0.3498934972162365,0.02460499311131758,0.2912806406721052,-0.4511109888553619,0.8673883676528931,0.2100869566202164,0,0,0,-1,-1,1163.108449375,unknown,2,2026-05-05T16:20:55.364+02:00,2026-05-05T16:12:27.330+02:00,645,0.8168712,0,0,506.8798,0,0,2026-05-05T16:20:39.892+02:00,799683665.7676581,0,0.009999275,100.7644,1,0.75,0
2026-05-05T16:21:07.281+02:00,1777990867.00041,53.23571351827457,10.40164729581252,18.92636,0,0.3080157,-1,-1,4.029364438188565,4.748651530191762,-9999,1175.020262125,-0.27337646484375,0.534820556640625,-0.080169677734375,1175.015225125,-2.318512631513664,-2.957126307036047,-0.5806012561596141,1.532609820365906,-1.599570751190186,-1.180930852890015,0.2257753014564514,-0.07045817375183105,-0.2268500328063965,XArbitraryZVertical,-0.884970718099155,-0.3574921953261571,0.03313504599863823,0.2965271701187302,-0.4584718346595764,0.8654563426971436,0.2019629776477814,0,0,0,-1,-1,1163.108449375,unknown,2,2026-05-05T16:20:55.364+02:00,2026-05-05T16:12:27.330+02:00,645,0.8168712,0,0,506.8798,0,0,2026-05-05T16:20:39.892+02:00,799683665.7676581,0,0.009999275,100.7644,1,0.75,0
2026-05-05T16:21:07.291+02:00,1777990867.00041,53.23571351827457,10.40164729581252,18.92636,0,0.3080157,-1,-1,4.029364438188565,4.748651530191762,-9999,1175.030336125,-0.294097900390625,0.4934844970703125,-0.1210784912109375,1175.025299125,-2.301973038158807,-2.963830878844879,-0.5915823560117454,1.12156343460083,-1.542359948158264,-1.142078757286072,0.213063508272171,-0.2475757598876953,-0.2536234557628632,XArbitraryZVertical,-0.8806074520364817,-0.3647195486553262,0.0408051256596212,0.2997421351438402,-0.4653066098690033,0.8627644777297974,0.1978068649768829,0,0,0,-1,-1,1163.108449375,unknown,2,2026-05-05T16:20:55.364+02:00,2026-05-05T16:12:27.330+02:00,645,0.8168712,0,0,506.8798,0,0,2026-05-05T16:20:39.892+02:00,799683665.7676581,0,0.009999275,100.7644,1,0.75,0
2026-05-05T16:21:07.301+02:00,1777990867.00041,53.23571351827457,10.40164729581252,18.92636,0,0.3080157,-1,-1,4.029364438188565,4.748651530191762,-9999,1175.040409125,-0.3151702880859375,0.5332794189453125,-0.1742706298828125,1175.035372125,-2.285851819666855,-2.969927990583118,-0.5998162947205938,0.9916399121284485,-1.468308568000793,-1.17007040977478,0.184170126914978,-0.3666968941688538,-0.3000530004501343,XArbitraryZVertical,-0.8765478826270917,-0.3719103044764507,0.04761649961049075,0.3017933886488415,-0.4724085927009583,0.8593268394470215,0.1959270238876343,0,0,0,-1,-1,1163.108449375,unknown,2,2026-05-05T16:20:55.364+02:00,2026-05-05T16:12:27.330+02:00,645,0.8168712,0,0,506.8798,0,0,2026-05-05T16:20:39.892+02:00,799683665.7676581,0,0.009999275,100.7644,1,0.75,0
2026-05-05T16:21:07.311+02:00,1777990867.00041,53.23571351827457,10.40164729581252,18.92636,0,0.3080157,-1,-1,4.029364438188565,4.748651530191762,-9999,1175.050482125,-0.3121490478515625,0.5870513916015625,-0.2380828857421875,1175.045446125,-2.26976586205799,-2.975032696926402,-0.6080544703071622,1.088939666748047,-1.342247605323792,-1.157524704933167,0.17897829413414,-0.3426375985145569,-0.3344707489013672,XArbitraryZVertical,-0.8724292618555052,-0.3789043254025083,0.05401879439425695,0.3039420161975152,-0.47963747382164,0.8557906150817871,0.1938305199146271,0,0,0,-1,-1,1163.108449375,unknown,2,2026-05-05T16:20:55.364+02:00,2026-05-05T16:12:27.330+02:00,645,0.8168712,0,0,506.8798,0,0,2026-05-05T16:20:39.892+02:00,799683665.7676581,0,0.009999275,100.7644,1,0.75,0
2026-05-05T16:21:07.321+02:00,1777990867.00041,53.23571351827457,10.40164729581252,18.92636,0,0.3080157,-1,-1,4.029364438188565,4.748651530191762,-9999,1175.060556125,-0.283721923828125,0.6900482177734375,-0.241241455078125,1175.055519125,-2.25319371726237,-2.978244476348974,-0.617995911112533,1.316460251808167,-1.203540802001953,-1.176812052726746,0.1645872890949249,-0.299017608165741,-0.4010957479476929,XArbitraryZVertical,-0.867984199413663,-0.3856156547717963,0.0600714854990875,0.3070758085023013,-0.4872190952301025,0.852423369884491,0.189715787768364,0,0,0,-1,-1,1163.108449375,unknown,2,2026-05-05T16:20:55.364+02:00,2026-05-05T16:12:27.330+02:00,645,0.8168712,0,0,506.8798,0,0,2026-05-05T16:20:39.892+02:00,799683665.7676581,0,0.009999275,100.7644,1,0.75,0
2026-05-05T16:21:07.331+02:00,1777990867.00041,53.23571351827457,10.40164729581252,18.92636,0,0.3080157,-1,-1,4.029364438188565,4.748651530191762,-9999,1175.070629125,-0.2841949462890625,0.7439422607421875,-0.17608642578125,1175.065592125,-2.235778495544215,-2.979430559599242,-0.6314888539066875,1.779489755630493,-1.052159786224365,-1.153313398361206,0.2021537721157074,-0.2133508920669556,-0.4300239086151123,XArbitraryZVertical,-0.8629255730942593,-0.3919689313460943,0.06620682613224166,0.3119881473273822,-0.4951072633266449,0.8495508432388306,0.1820228546857834,0,0,0,-1,-1,1163.108449375,unknown,2,2026-05-05T16:20:55.364+02:00,2026-05-05T16:12:27.330+02:00,645,0.8168712,0,0,506.8798,0,0,2026-05-05T16:20:39.892+02:00,799683665.7676581,0,0.009999275,100.7644,1,0.75,0
2026-05-05T16:21:07.341+02:00,1777990867.00041,53.23571351827457,10.40164729581252,18.92636,0,0.3080157,-1,-1,4.029364438188565,4.748651530191762,-9999,1175.08070375,-0.3054656982421875,0.727294921875,-0.0182952880859375,1175.07566675,-2.217412220376211,-2.978463967598154,-0.6487604215162369,2.053528308868408,-0.9404839277267456,-1.190269231796265,0.220679759979248,-0.1169821619987488,-0.3875448703765869,XArbitraryZVertical,-0.8571967692811034,-0.3979210362135818,0.07249420168139623,0.3187746481143837,-0.5033029913902283,0.8471152186393738,0.1705344170331955,0,0,0,-1,-1,1163.108449375,unknown,2,2026-05-05T16:20:55.364+02:00,2026-05-05T16:12:27.330+02:00,645,0.8168712,0,0,506.8798,0,0,2026-05-05T16:20:39.892+02:00,799683665.7676581,0,0.009999275,100.7644,1,0.75,0
