loggingTime(txt),locationTimestamp_since1970(s),locationLatitude(WGS84),locationLongitude(WGS84),locationAltitude(m),locationSpeed(m/s),locationSpeedAccuracy(m/s),locationCourse(°),locationCourseAccuracy(°),locationVerticalAccuracy(m),locationHorizontalAccuracy(m),locationFloor(Z),accelerometerTimestamp_sinceReboot(s),accelerometerAccelerationX(G),accelerometerAccelerationY(G),accelerometerAccelerationZ(G),motionTimestamp_sinceReboot(s),motionYaw(rad),motionRoll(rad),motionPitch(rad),motionRotationRateX(rad/s),motionRotationRateY(rad/s),motionRotationRateZ(rad/s),motionUserAccelerationX(G),motionUserAccelerationY(G),motionUserAccelerationZ(G),motionAttitudeReferenceFrame(txt),motionQuaternionX(R),motionQuaternionY(R),motionQuaternionZ(R),motionQuaternionW(R),motionGravityX(G),motionGravityY(G),motionGravityZ(G),motionMagneticFieldX(µT),motionMagneticFieldY(µT),motionMagneticFieldZ(µT),motionHeading(°),motionMagneticFieldCalibrationAccuracy(Z),activityTimestamp_sinceReboot(s),activity(txt),activityActivityConfidence(Z),activityActivityStartDate(txt),pedometerStartDate(txt),pedometerNumberofSteps(N),pedometerAverageActivePace(s/m),pedometerCurrentPace(s/m),pedometerCurrentCadence(steps/s),pedometerDistance(m),pedometerFloorAscended(N),pedometerFloorDescended(N),pedometerEndDate(txt),altimeterTimestamp_sinceReboot(s),altimeterReset(bool),altimeterRelativeAltitude(m),altimeterPressure(kPa),batteryState(N),batteryLevel(R),label
2026-04-24T18:35:19.246+02:00,1777048513.800981,53.56897219751585,9.882953190205464,38.55946,-1,-1,-1,-1,9.519085617248134,5.63601519283635,-9999,3576.100006375,0.0529327392578125,-0.070159912109375,-0.996551513671875,3576.094969375,-0.000108658874141659,-2.00370057101838e-05,-0.0001812146004825462,0.009464375674724579,-0.001180137507617474,-0.003776051569730043,0.003102269023656845,0.002251818776130676,0.008237183094024658,XArbitraryZVertical,-9.060783798181433e-05,-1.001357946020148e-05,-5.43285252934555e-05,1.000000063863779,0.04677872732281685,-0.06745263934135437,-0.9966252446174622,0,0,0,-1,-1,3542.123566166667,unknown,2,2026-04-24T18:34:45.265+02:00,2026-04-24T18:20:19.173+02:00,16,0.7102333,0,0,12.45568,0,0,2026-04-24T18:28:28.837+02:00,798741318.8894778,0,1.99,101.5412,1,0.85,0
2026-04-24T18:35:19.256+02:00,1777048513.800981,53.56897219751585,9.882953190205464,38.55946,-1,-1,-1,-1,9.519085617248134,5.63601519283635,-9999,3576.110081375,0.0541534423828125,-0.07159423828125,-0.9941864013671875,3576.105043375,-0.0001512704587057262,-5.595781267724815e-05,-0.0001455927981629485,0.003587790299206972,-0.00639434065669775,-0.005397516768425703,0.004325374960899353,-0.001132644712924957,0.001247942447662354,XArbitraryZVertical,-7.279851201071543e-05,-2.79733990713088e-05,-7.563318921143272e-05,1.000000034766685,0.04674580693244934,-0.06748614460229874,-0.9966245293617249,0,0,0,-1,-1,3542.123566166667,unknown,2,2026-04-24T18:34:45.265+02:00,2026-04-24T18:20:19.173+02:00,16,0.7102333,0,0,12.45568,0,0,2026-04-24T18:28:28.837+02:00,798741318.8894778,0,1.99,101.5412,1,0.85,0
2026-04-24T18:35:19.266+02:00,1777048513.800981,53.56897219751585,9.882953190205464,38.55946,-1,-1,-1,-1,9.519085617248134,5.63601519283635,-9999,3576.120155375,0.0511016845703125,-0.0692596435546875,-0.9920196533203125,3576.115118375,-0.0001970762016981635,-0.0001620208056308411,-9.661311332301638e-05,0.003152097342535853,-0.007650021463632584,-0.002013704273849726,0.00801379606127739,-0.003237463533878326,0.0005934834480285645,XArbitraryZVertical,-4.831453623837906e-05,-8.100563780764134e-05,-9.853418157146262e-05,1.000000044959627,0.0466432012617588,-0.06753281503915787,-0.9966261982917786,0,0,0,-1,-1,3542.123566166667,unknown,2,2026-04-24T18:34:45.265+02:00,2026-04-24T18:20:19.173+02:00,16,0.7102333,0,0,12.45568,0,0,2026-04-24T18:28:28.837+02:00,798741318.8894778,0,1.99,101.5412,1,0.85,0
2026-04-24T18:35:19.276+02:00,1777048513.800981,53.56897219751585,9.882953190205464,38.55946,-1,-1,-1,-1,9.519085617248134,5.63601519283635,-9999,3576.130230375,0.0484161376953125,-0.06805419921875,-0.9904937744140625,3576.125193375,-0.0002081856831350159,-0.0002793254327690634,-8.969425762392175e-05,-0.001028000377118587,-0.009881217032670975,-0.0008722071070224047,0.006771918386220932,-0.003673583269119263,0.002978861331939697,XArbitraryZVertical,-4.486166277415364e-05,-0.0001396580367161371,-0.0001040865692963758,1.000000055806909,0.04652704671025276,-0.06753919273614883,-0.9966311454772949,0,0,0,-1,-1,3542.123566166667,unknown,2,2026-04-24T18:34:45.265+02:00,2026-04-24T18:20:19.173+02:00,16,0.7102333,0,0,12.45568,0,0,2026-04-24T18:28:28.837+02:00,798741318.8894778,0,1.99,101.5412,1,0.85,0
2026-04-24T18:35:19.286+02:00,1777048513.800981,53.56897219751585,9.882953190205464,38.55946,-1,-1,-1,-1,9.519085617248134,5.63601519283635,-9999,3576.140304375,0.047210693359375,-0.0732421875,-0.9880523681640625,3576.135267375,-0.0002234297899812374,-0.0003768992355090771,-6.716605687759737e-05,0.004995803814381361,-0.00973234698176384,-0.003105800366029143,0.003785852342844009,5.603581666946411e-05,0.005530059337615967,XArbitraryZVertical,-3.360407643793934e-05,-0.0001884458422509016,-0.0001117085513289435,1.000000088907391,0.04643083736300468,-0.06756093353033066,-0.9966341853141785,0,0,0,-1,-1,3542.123566166667,unknown,2,2026-04-24T18:34:45.265+02:00,2026-04-24T18:20:19.173+02:00,16,0.7102333,0,0,12.45568,0,0,2026-04-24T18:28:28.837+02:00,798741318.8894778,0,1.99,101.5412,1,0.85,0
2026-04-24T18:35:19.296+02:00,1777048513.800981,53.56897219751585,9.882953190205464,38.55946,-1,-1,-1,-1,9.519085617248134,5.63601519283635,-9999,3576.150379375,0.0479888916015625,-0.066619873046875,-0.98748779296875,3576.145342375,-0.0002353475271561507,-0.000468073216399366,-3.384210512359013e-05,0.001862860983237624,-0.007104871328920126,-0.0007686101598665118,0.00122089684009552,-0.003283508121967316,0.007256269454956055,XArbitraryZVertical,-1.694859192355409e-05,-0.0002340346129006275,-0.0001176697997479279,0.9999999670205734,0.04634076729416847,-0.06759357452392578,-0.9966361522674561,0,0,0,-1,-1,3542.123566166667,unknown,2,2026-04-24T18:34:45.265+02:00,2026-04-24T18:20:19.173+02:00,16,0.7102333,0,0,12.45568,0,0,2026-04-24T18:28:28.837+02:00,798741318.8894778,0,1.99,101.5412,1,0.85,0
2026-04-24T18:35:19.306+02:00,1777048513.800981,53.56897219751585,9.882953190205464,38.55946,-1,-1,-1,-1,9.519085617248134,5.63601519283635,-9999,3576.160454375,0.045684814453125,-0.0630340576171875,-0.9883880615234375,3576.155416375,-0.0002125913638807878,-0.0005309252237012399,-8.068449018946173e-06,0.003801109734922647,-0.007154939230531454,0.002071651164442301,0.001025673002004623,-0.003714524209499359,0.009347915649414062,XArbitraryZVertical,-4.062441744691963e-06,-0.000265462170108836,-0.0001062946037343121,0.9999999903790673,0.04627658799290657,-0.06762032955884933,-0.9966373443603516,0,0,0,-1,-1,3542.123566166667,unknown,2,2026-04-24T18:34:45.265+02:00,2026-04-24T18:20:19.173+02:00,16,0.7102333,0,0,12.45568,0,0,2026-04-24T18:28:28.837+02:00,798741318.8894778,0,1.99,101.5412,1,0.85,0
2026-04-24T18:35:19.317+02:00,1777048513.800981,53.56897219751585,9.882953190205464,38.55946,-1,-1,-1,-1,9.519085617248134,5.63601519283635,-9999,3576.170528375,0.043365478515625,-0.0684356689453125,-0.99139404296875,3576.165491375,-0.0002180070959669431,-0.000563715307265924,2.85371073856512e-05,0.008079743944108486,-0.002497869543731213,-0.002497068140655756,0.0004018545150756836,0.004653006792068481,0.008904457092285156,XArbitraryZVertical,1.423782903536656e-05,-0.0002818591931493667,-0.0001090075611163582,0.9999999910308632,0.04624427855014801,-0.06765655428171158,-0.9966363906860352,0,0,0,-1,-1,3542.123566166667,unknown,2,2026-04-24T18:34:45.265+02:00,2026-04-24T18:20:19.173+02:00,16,0.7102333,0,0,12.45568,0,0,2026-04-24T18:28:28.837+02:00,798741318.8894778,0,1.99,101.5412,1,0.85,0
2026-04-24T18:35:19.327+02:00,1777048513.800981,53.56897219751585,9.882953190205464,38.55946,-1,-1,-1,-1,9.519085617248134,5.63601519283635,-9999,3576.180603375,0.043304443359375,-0.066375732421875,-0.9953460693359375,3576.175566375,-0.0002511836739212257,-0.0005602853949556515,7.402358233065166e-05,0.003591785207390785,-6.081117317080498e-05,-0.003825452644377947,-0.002350397408008575,0.0018434077501297,0.007939934730529785,XArbitraryZVertical,3.697660192196593e-05,-0.0002801473105255284,-0.0001256021870763167,1.000000056648077,0.04624994844198227,-0.0677003487944603,-0.9966331124305725,0,0,0,-1,-1,3542.123566166667,unknown,2,2026-04-24T18:34:45.265+02:00,2026-04-24T18:20:19.173+02:00,16,0.7102333,0,0,12.45568,0,0,2026-04-24T18:28:28.837+02:00,798741318.8894778,0,1.99,101.5412,1,0.85,0
2026-04-24T18:35:19.337+02:00,1777048513.800981,53.56897219751585,9.882953190205464,38.55946,-1,-1,-1,-1,9.519085617248134,5.63601519283635,-9999,3576.190678375,0.045379638671875,-0.066131591796875,-0.9947967529296875,3576.185640375,-0.0002955157606390441,-0.0005505098329266588,0.0001307846391988245,0.004940356593579054,-0.0002645431086421013,-0.00549745187163353,-0.003004007041454315,-0.0008486881852149963,0.002472937107086182,XArbitraryZVertical,6.535163954653221e-05,-0.0002752645474451249,-0.0001477758604426207,1.000000036894461,0.04626268893480301,-0.0677548348903656,-0.9966288208961487,0,0,0,-1,-1,3542.123566166667,unknown,2,2026-04-24T18:34:45.265+02:00,2026-04-24T18:20:19.173+02:00,16,0.7102333,0,0,12.45568,0,0,2026-04-24T18:28:28.837+02:00,798741318.8894778,0,1.99,101.5412,1,0.85,0
2026-04-24T18:35:19.347+02:00,1777048513.800981,53.56897219751585,9.882953190205464,38.55946,-1,-1,-1,-1,9.519085617248134,5.63601519283635,-9999,3576.200752375,0.0464935302734375,-0.0665283203125,-0.99530029296875,3576.195715375,-0.0003445789006143647,-0.0004894707663214903,0.0001836724728019613,-0.0004179234383627772,-0.003871794324368238,-0.004162142984569073,-0.002335742115974426,0.002406075596809387,0.001673102378845215,XArbitraryZVertical,9.179405652779852e-05,-0.0002447511709570575,-0.0001723118997738893,1.000000063376484,0.04632684588432312,-0.06780525296926498,-0.9966224431991577,0,0,0,-1,-1,3542.123566166667,unknown,2,2026-04-24T18:34:45.265+02:00,2026-04-24T18:20:19.173+02:00,16,0.7102333,0,0,12.45568,0,0,2026-04-24T18:28:28.837+02:00,798741318.8894778,0,1.99,101.5412,1,0.85,0
2026-04-24T18:35:19.357+02:00,1777048513.800981,53.56897219751585,9.882953190205464,38.55946,-1,-1,-1,-1,9.519085617248134,5.63601519283635,-9999,3576.210827375,0.0481719970703125,-0.068389892578125,-0.992095947265625,3576.205789375,-0.0004047944337699328,-0.0004626651444342015,0.0001742952751337987,-0.009215889498591423,-0.004880866501480341,-0.005829880945384502,-0.0005659870803356171,0.001569919288158417,0.001077413558959961,XArbitraryZVertical,8.710080711224912e-05,-0.0002313501892543715,-0.0002024173573994633,1.000000008260162,0.04635762423276901,-0.06779307872056961,-0.99662184715271,0,0,0,-1,-1,3542.123566166667,unknown,2,2026-04-24T18:34:45.265+02:00,2026-04-24T18:20:19.173+02:00,16,0.7102333,0,0,12.45568,0,0,2026-04-24T18:28:28.837+02:00,798741318.8894778,0,1.99,101.5412,1,0.85,0
2026-04-24T18:35:19.367+02:00,1777048513.800981,53.56897219751585,9.882953190205464,38.55946,-1,-1,-1,-1,9.519085617248134,5.63601519283635,-9999,3576.220901375,0.047515869140625,-0.071807861328125,-0.99053955078125,3576.215864375,-0.0004491736802720247,-0.000496439914027398,5.773531678876165e-05,-0.01454673893749714,-0.009444192051887512,-0.003664464689791203,0.0007769316434860229,0.0007803067564964294,0.002612769603729248,XArbitraryZVertical,2.881190760619093e-05,-0.0002482264120911185,-0.0002245939792960646,1.000000021327787,0.04632696509361267,-0.06767483800649643,-0.9966312646865845,0,0,0,-1,-1,3542.123566166667,unknown,2,2026-04-24T18:34:45.265+02:00,2026-04-24T18:20:19.173+02:00,16,0.7102333,0,0,12.45568,0,0,2026-04-24T18:28:28.837+02:00,798741318.8894778,0,1.99,101.5412,1,0.85,0
2026-04-24T18:35:19.377+02:00,1777048513.800981,53.56897219751585,9.882953190205464,38.55946,-1,-1,-1,-1,9.519085617248134,5.63601519283635,-9999,3576.230976375,0.0480194091796875,-0.071685791015625,-0.99151611328125,3576.225939375,-0.0004959161985207681,-0.0006039694179888046,-7.310494438398647e-05,-0.0206629540771246,-0.01491326000541449,-0.005758708342909813,0.00181172788143158,-0.00257188081741333,0.005968272686004639,XArbitraryZVertical,-3.662734545513395e-05,-0.0003019756027768453,-0.0002479470234277486,1.000000017914416,0.04622295126318932,-0.06754225492477417,-0.9966450929641724,0,0,0,-1,-1,3542.123566166667,unknown,2,2026-04-24T18:34:45.265+02:00,2026-04-24T18:20:19.173+02:00,16,0.7102333,0,0,12.45568,0,0,2026-04-24T18:28:28.837+02:00,798741318.8894778,0,1.99,101.5412,1,0.85,0
2026-04-24T18:35:19.387+02:00,1777048513.800981,53.56897219751585,9.882953190205464,38.55946,-1,-1,-1,-1,9.519085617248134,5.63601519283635,-9999,3576.241051375,0.045867919921875,-0.071990966796875,-0.9875946044921875,3576.236013375,-0.000554870993065165,-0.0007129979163144265,-0.0002439391892174873,-0.02259481139481068,-0.01278432924300432,-0.005868962965905666,0.001275546848773956,-0.004667513072490692,0.004870891571044922,XArbitraryZVertical,-0.000122068475759227,-0.0003564650618341963,-0.0002773919650221653,0.9999999851216308,0.04611826688051224,-0.0673692375421524,-0.9966616630554199,0,0,0,-1,-1,3542.123566166667,unknown,2,2026-04-24T18:34:45.265+02:00,2026-04-24T18:20:19.173+02:00,16,0.7102333,0,0,12.45568,0,0,2026-04-24T18:28:28.837+02:00,798741318.8894778,0,1.99,101.5412,1,0.85,0
2026-04-24T18:35:19.397+02:00,1777048513.800981,53.56897219751585,9.882953190205464,38.55946,-1,-1,-1,-1,9.519085617248134,5.63601519283635,-9999,3576.251125375,0.0443572998046875,-0.0696258544921875,-0.9863739013671875,3576.246088375,-0.0006021392149612846,-0.0008254738685883836,-0.0005347855106737185,-0.02105193585157394,-0.01393854338675737,-0.002376027638092637,0.001384463161230087,-0.004395022988319397,0.006803035736083984,XArbitraryZVertical,-0.0002675169601475278,-0.0004126563550273266,-0.0003009591816036809,0.9999999071561727,0.04600934311747551,-0.0670771524310112,-0.9966863989830017,0,0,0,-1,-1,3542.123566166667,unknown,2,2026-04-24T18:34:45.265+02:00,2026-04-24T18:20:19.173+02:00,16,0.7102333,0,0,12.45568,0,0,2026-04-24T18:28:28.837+02:00,798741318.8894778,0,1.99,101.5412,1,0.85,0
2026-04-24T18:35:19.407+02:00,1777048513.800981,53.56897219751585,9.882953190205464,38.55946,-1,-1,-1,-1,9.519085617248134,5.63601519283635,-9999,3576.261200375,0.0446929931640625,-0.06439208984375,-0.9850921630859375,3576.256162375,-0.0006290315085226403,-0.000985198972058109,-0.000739508036967214,-0.01833843998610973,-0.01066072471439838,-0.00533693004399538,-0.001265756785869598,-0.004417210817337036,0.01015043258666992,XArbitraryZVertical,-0.0003699088412830098,-0.0004924830668835134,-0.0003143335183476193,0.9999998578957365,0.04585195705294609,-0.06687185913324356,-0.9967074394226074,0,0,0,-1,-1,3542.123566166667,unknown,2,2026-04-24T18:34:45.265+02:00,2026-04-24T18:20:19.173+02:00,16,0.7102333,0,0,12.45568,0,0,2026-04-24T18:28:28.837+02:00,798741318.8894778,0,1.99,101.5412,1,0.85,0
2026-04-24T18:35:19.417+02:00,1777048513.800981,53.56897219751585,9.882953190205464,38.55946,-1,-1,-1,-1,9.519085617248134,5.63601519283635,-9999,3576.271274375,0.04254150390625,-0.0631561279296875,-0.9888458251953125,3576.266237375,-0.0006575880721516002,-0.001126041349282279,-0.0008588101906333123,-0.01303076092153788,-0.008636988699436188,-0.001250775647349656,-0.0004711784422397614,-0.0003870502114295959,0.01097363233566284,XArbitraryZVertical,-0.0004295900652194743,-0.0005628793199081325,-0.0003285521506664694,0.9999997963717578,0.04571349918842316,-0.0667516216635704,-0.9967218637466431,0,0,0,-1,-1,3542.123566166667,unknown,2,2026-04-24T18:34:45.265+02:00,2026-04-24T18:20:19.173+02:00,16,0.7102333,0,0,12.45568,0,0,2026-04-24T18:28:28.837+02:00,798741318.8894778,0,1.99,101.5412,1,0.85,0
2026-04-24T18:35:19.428+02:00,1777048513.800981,53.56897219751585,9.882953190205464,38.55946,-1,-1,-1,-1,9.519085617248134,5.63601519283635,-9999,3576.281349375,0.0416107177734375,-0.066162109375,-0.992584228515625,3576.276312375,-0.0006870841730333053,-0.001230349782048386,-0.0009961030562417119,-0.009951347485184669,-0.006962659303098917,-0.002894478617236018,-0.001895066350698471,0.003335192799568176,0.01001095771789551,XArbitraryZVertical,-0.0004982626729070472,-0.0006150035770990514,-0.0003432355494513196,0.9999997269344396,0.04561151564121246,-0.06661339849233627,-0.9967358112335205,0,0,0,-1,-1,3542.123566166667,unknown,2,2026-04-24T18:34:45.265+02:00,2026-04-24T18:20:19.173+02:00,16,0.7102333,0,0,12.45568,0,0,2026-04-24T18:28:28.837+02:00,798741318.8894778,0,1.99,101.5412,1,0.85,0
2026-04-24T18:35:19.438+02:00,1777048513.800981,53.56897219751585,9.882953190205464,38.55946,-1,-1,-1,-1,9.519085617248134,5.63601519283635,-9999,3576.291424375,0.0421295166015625,-0.0630950927734375,-0.9947967529296875,3576.286386375,-0.0007054704870800482,-0.001263771560699577,-0.001071563921233689,-0.008264821022748947,-0.002393739763647318,-0.00175471231341362,-0.004060249775648117,0.00223676860332489,0.005027890205383301,XArbitraryZVertical,-0.0005360046775124654,-0.0006316966126817082,-0.00035239655862258,0.9999996050064006,0.04557942971587181,-0.06653732061386108,-0.9967423677444458,0,0,0,-1,-1,3542.123566166667,unknown,2,2026-04-24T18:34:45.265+02:00,2026-04-24T18:20:19.173+02:00,16,0.7102333,0,0,12.45568,0,0,2026-04-24T18:28:28.837+02:00,798741318.8894778,0,1.99,101.5412,1,0.85,0
2026-04-24T18:35:19.448+02:00,1777048513.800981,53.56897219751585,9.882953190205464,38.55946,-1,-1,-1,-1,9.519085617248134,5.63601519283635,-9999,3576.301498375,0.04302978515625,-0.0572662353515625,-0.998870849609375,3576.296461375,-0.000702622245462862,-0.001268771099391708,-0.00112441727262095,-0.003070591716095805,-0.0003239312209188938,0.001843750942498446,-0.003536276519298553,0.0001548156142234802,0.003459930419921875,XArbitraryZVertical,-0.0005624312800424952,-0.0006341878064441403,-0.0003509543040273565,0.9999996599409616,0.04557425528764725,-0.06648477911949158,-0.9967460632324219,0,0,0,-1,-1,3542.123566166667,unknown,2,2026-04-24T18:34:45.265+02:00,2026-04-24T18:20:19.173+02:00,16,0.7102333,0,0,12.45568,0,0,2026-04-24T18:28:28.837+02:00,798741318.8894778,0,1.99,101.5412,1,0.85,0
2026-04-24T18:35:19.458+02:00,1777048513.800981,53.56897219751585,9.882953190205464,38.55946,-1,-1,-1,-1,9.519085617248134,5.63601519283635,-9999,3576.311573375,0.0427093505859375,-0.062896728515625,-1.000640869140625,3576.306535375,-0.0006920106914472963,-0.001235092622524076,-0.00109540254053961,-0.001718398183584213,-0.001452312339097261,0.00175173906609416,-0.002760414034128189,0.007416896522045135,-0.0005717873573303223,XArbitraryZVertical,-0.0005479147543812626,-0.0006173566061436158,-0.000345666974025264,0.9999996461981556,0.04560710862278938,-0.06651419401168823,-0.9967426061630249,0,0,0,-1,-1,3542.123566166667,unknown,2,2026-04-24T18:34:45.265+02:00,2026-04-24T18:20:19.173+02:00,16,0.7102333,0,0,12.45568,0,0,2026-04-24T18:28:28.837+02:00,798741318.8894778,0,1.99,101.5412,1,0.85,0
2026-04-24T18:35:19.468+02:00,1777048513.800981,53.56897219751585,9.882953190205464,38.55946,-1,-1,-1,-1,9.519085617248134,5.63601519283635,-9999,3576.321647375,0.0445556640625,-0.063262939453125,-0.99713134765625,3576.316610375,-0.0006667966161443332,-0.001210218006702071,-0.001049810054434586,-0.001444891560822725,-0.0001777233555912971,0.001301132258959115,-0.002447810024023056,0.007204122841358185,-0.0031699538230896,XArbitraryZVertical,-0.0005251066125202291,-0.0006049338382888432,-0.0003330805654165814,0.9999996381412168,0.04563019797205925,-0.06656081229448318,-0.9967384338378906,0,0,0,-1,-1,3542.123566166667,unknown,2,2026-04-24T18:34:45.265+02:00,2026-04-24T18:20:19.173+02:00,16,0.7102333,0,0,12.45568,0,0,2026-04-24T18:28:28.837+02:00,798741318.8894778,0,1.99,101.5412,1,0.85,0
2026-04-24T18:35:19.478+02:00,1777048513.800981,53.56897219751585,9.882953190205464,38.55946,-1,-1,-1,-1,9.519085617248134,5.63601519283635,-9999,3576.331722375,0.047698974609375,-0.0612335205078125,-0.9929962158203125,3576.326685375,-0.0006548156236123109,-0.001211321383679119,-0.000997757252817374,0.003495005890727043,-0.002666447311639786,-0.0008363208035007119,-0.002506934106349945,0.002404250204563141,-0.003249704837799072,XArbitraryZVertical,-0.0004990767985440651,-0.000605497226092618,-0.0003271055625782556,0.9999996124875029,0.04562828689813614,-0.06661324948072433,-0.9967350363731384,0,0,0,-1,-1,3542.123566166667,unknown,2,2026-04-24T18:34:45.265+02:00,2026-04-24T18:20:19.173+02:00,16,0.7102333,0,0,12.45568,0,0,2026-04-24T18:28:28.837+02:00,798741318.8894778,0,1.99,101.5412,1,0.85,0
2026-04-24T18:35:19.488+02:00,1777048513.800981,53.56897219751585,9.882953190205464,38.55946,-1,-1,-1,-1,9.519085617248134,5.63601519283635,-9999,3576.341797375,0.048797607421875,-0.06427001953125,-0.98687744140625,3576.336759375,-0.0006634903896739914,-0.001242250052042694,-0.0009351910642767721,0.003001255914568901,-0.001639266032725573,-0.002789483172819018,0.001292221248149872,0.004983909428119659,0.00126415491104126,XArbitraryZVertical,-0.0004678014461520716,-0.0006209697505711446,-0.0003314546474402256,0.9999996604063496,0.04559805616736412,-0.06667520850896835,-0.9967322945594788,0,0,0,-1,-1,3542.123566166667,unknown,2,2026-04-24T18:34:45.265+02:00,2026-04-24T18:20:19.173+02:00,16,0.7102333,0,0,12.45568,0,0,2026-04-24T18:28:28.837+02:00,798741318.8894778,0,1.99,101.5412,1,0.85,0
2026-04-24T18:35:19.498+02:00,1777048513.800981,53.56897219751585,9.882953190205464,38.55946,-1,-1,-1,-1,9.519085617248134,5.63601519283635,-9999,3576.351871375,0.046966552734375,-0.0701904296875,-0.9852447509765625,3576.346834375,-0.0006858796256721955,-0.001271051735135212,-0.0009125619923401044,0.001567889237776399,-0.003033431712538004,-0.002625698922201991,0.004004955291748047,0.004456102848052979,0.006696105003356934,XArbitraryZVertical,-0.0004564988126078779,-0.0006353692501692188,-0.0003426497259486418,0.999999626137361,0.04557086154818535,-0.06669670343399048,-0.9967320561408997,0,0,0,-1,-1,3542.123566166667,unknown,2,2026-04-24T18:34:45.265+02:00,2026-04-24T18:20:19.173+02:00,16,0.7102333,0,0,12.45568,0,0,2026-04-24T18:28:28.837+02:00,798741318.8894778,0,1.99,101.5412,1,0.85,0
2026-04-24T18:35:19.508+02:00,1777048513.800981,53.56897219751585,9.882953190205464,38.55946,-1,-1,-1,-1,9.519085617248134,5.63601519283635,-9999,3576.361946375,0.045623779296875,-0.0713958740234375,-0.98736572265625,3576.356909375,-0.0007242033194144741,-0.001312586560288947,-0.0009299753724891655,-0.003462023101747036,-0.004775139037519693,-0.003330904059112072,0.002502631396055222,-0.0008731111884117126,0.01075798273086548,XArbitraryZVertical,-0.0004652251806821168,-0.0006561247420355017,-0.0003617963640827536,0.9999996175703499,0.04553205147385597,-0.06667755544185638,-0.996735155582428,0,0,0,-1,-1,3542.123566166667,unknown,2,2026-04-24T18:34:45.265+02:00,2026-04-24T18:20:19.173+02:00,16,0.7102333,0,0,12.45568,0,0,2026-04-24T18:28:28.837+02:00,798741318.8894778,0,1.99,101.5412,1,0.85,0
2026-04-24T18:35:19.519+02:00,1777048513.800981,53.56897219751585,9.882953190205464,38.55946,-1,-1,-1,-1,9.519085617248134,5.63601519283635,-9999,3576.372020375,0.0464324951171875,-0.06793212890625,-0.99041748046875,3576.366983375,-0.0007734796054534469,-0.001390052208061164,-0.00098594428251491,-0.0027750872541219,-0.006107518449425697,-0.003894628491252661,4.35560941696167e-05,-0.004608564078807831,0.01035326719284058,XArbitraryZVertical,-0.0004932407620769376,-0.0006948352633029202,-0.0003863970262150952,0.9999995571967906,0.04545816406607628,-0.06661946326494217,-0.9967423677444458,0,0,0,-1,-1,3542.123566166667,unknown,2,2026-04-24T18:34:45.265+02:00,2026-04-24T18:20:19.173+02:00,16,0.7102333,0,0,12.45568,0,0,2026-04-24T18:28:28.837+02:00,798741318.8894778,0,1.99,101.5412,1,0.85,0
2026-04-24T18:35:19.528+02:00,1777048513.800981,53.56897219751585,9.882953190205464,38.55946,-1,-1,-1,-1,9.519085617248134,5.63601519283635,-9999,3576.382095375,0.0451507568359375,-0.0667877197265625,-0.99212646484375,3576.377058375,-0.0008052119691673413,-0.001484834760109454,-0.001057112981305482,-0.007746409624814987,-0.01021810714155436,-0.003004600061103702,0.0008377991616725922,-0.003338217735290527,0.007417380809783936,XArbitraryZVertical,-0.0005288552001759017,-0.0007422043775153418,-0.0004022134130227931,0.9999994641068276,0.0453658252954483,-0.06654704362154007,-0.9967514276504517,0,0,0,-1,-1,3542.123566166667,unknown,2,2026-04-24T18:34:45.265+02:00,2026-04-24T18:20:19.173+02:00,16,0.7102333,0,0,12.45568,0,0,2026-04-24T18:28:28.837+02:00,798741318.8894778,0,1.99,101.5412,1,0.85,0
2026-04-24T18:35:19.538+02:00,1777048513.800981,53.56897219751585,9.882953190205464,38.55946,-1,-1,-1,-1,9.519085617248134,5.63601519283635,-9999,3576.392170375,0.0459136962890625,-0.0670318603515625,-0.994354248046875,3576.387132375,-0.0008466340036392071,-0.001574386450233668,-0.001160272889871768,-0.003742773551493883,-0.004755963571369648,-0.005217287223786116,0.0002528764307498932,-0.001611903309822083,0.005536198616027832,XArbitraryZVertical,-0.0005804693657990463,-0.0007869472956287263,-0.0004228600732596511,0.9999995134307207,0.0452793650329113,-0.06644229590892792,-0.9967623353004456,0,0,0,-1,-1,3542.123566166667,unknown,2,2026-04-24T18:34:45.265+02:00,2026-04-24T18:20:19.173+02:00,16,0.7102333,0,0,12.45568,0,0,2026-04-24T18:28:28.837+02:00,798741318.8894778,0,1.99,101.5412,1,0.85,0
2026-04-24T18:35:19.548+02:00,1777048513.800981,53.56897219751585,9.882953190205464,38.55946,-1,-1,-1,-1,9.519085617248134,5.63601519283635,-9999,3576.402244375,0.041046142578125,-0.0693511962890625,-0.9935150146484375,3576.397207375,-0.0008816574938469315,-0.001609028893027526,-0.001242800039969739,-0.003714011516422033,-0.001569491811096668,-0.003292088396847248,0.00121583417057991,0.0002268031239509583,0.003284931182861328,XArbitraryZVertical,-0.0006217543180377066,-0.0008042401263331438,-0.0004403285419861944,0.9999994722438086,0.04524719342589378,-0.06635840237140656,-0.9967694282531738,0,0,0,-1,-1,3542.123566166667,unknown,2,2026-04-24T18:34:45.265+02:00,2026-04-24T18:20:19.173+02:00,16,0.7102333,0,0,12.45568,0,0,2026-04-24T18:28:28.837+02:00,798741318.8894778,0,1.99,101.5412,1,0.85,0
2026-04-24T18:35:19.559+02:00,1777048513.800981,53.56897219751585,9.882953190205464,38.55946,-1,-1,-1,-1,9.519085617248134,5.63601519283635,-9999,3576.412319375,0.0384368896484375,-0.0632781982421875,-0.992523193359375,3576.407282375,-0.0008756739320775862,-0.001608841064604313,-0.001284053613858057,-0.00129357073456049,0.003037244081497192,0.001843018922954798,-0.00125586986541748,-0.002758979797363281,0.002662062644958496,XArbitraryZVertical,-0.0006423786593949982,-0.0008041390508605653,-0.0004373202342289582,0.9999994355102471,0.04524696990847588,-0.06631756573915482,-0.9967721104621887,0,0,0,-1,-1,3542.123566166667,unknown,2,2026-04-24T18:34:45.265+02:00,2026-04-24T18:20:19.173+02:00,16,0.7102333,0,0,12.45568,0,0,2026-04-24T18:28:28.837+02:00,798741318.8894778,0,1.99,101.5412,1,0.85,0
2026-04-24T18:35:19.569+02:00,1777048513.800981,53.56897219751585,9.882953190205464,38.55946,-1,-1,-1,-1,9.519085617248134,5.63601519283635,-9999,3576.422393375,0.0431671142578125,-0.0577392578125,-0.9925689697265625,3576.417356375,-0.0008624162604776751,-0.00156100909193698,-0.001299107824981735,0.004332889337092638,0.00262738368473947,0.001876574708148837,-0.006322789937257767,-0.001171186566352844,0.003561139106750488,XArbitraryZVertical,-0.0006498901055317765,-0.000780224061386941,-0.0004307008734168039,0.9999994882783436,0.04529375210404396,-0.06630318611860275,-0.996770977973938,0,0,0,-1,-1,3542.123566166667,unknown,2,2026-04-24T18:34:45.265+02:00,2026-04-24T18:20:19.173+02:00,16,0.7102333,0,0,12.45568,0,0,2026-04-24T18:28:28.837+02:00,798741318.8894778,0,1.99,101.5412,1,0.85,0
2026-04-24T18:35:19.579+02:00,1777048513.800981,53.56897219751585,9.882953190205464,38.55946,-1,-1,-1,-1,9.519085617248134,5.63601519283635,-9999,3576.432468375,0.045867919921875,-0.061431884765625,-0.98956298828125,3576.427431375,-0.000852494184841305,-0.00148532473953057,-0.001233152684411587,0.01781737990677357,0.003369340673089027,0.0004218892718199641,-0.005146339535713196,0.00699741393327713,0.004957139492034912,XArbitraryZVertical,-0.000616892623387544,-0.0007423992655343737,-0.0004257889652470349,0.9999994617630569,0.04536852240562439,-0.06636937707662582,-0.9967631697654724,0,0,0,-1,-1,3542.123566166667,unknown,2,2026-04-24T18:34:45.265+02:00,2026-04-24T18:20:19.173+02:00,16,0.7102333,0,0,12.45568,0,0,2026-04-24T18:28:28.837+02:00,798741318.8894778,0,1.99,101.5412,1,0.85,0
2026-04-24T18:35:19.589+02:00,1777048513.800981,53.56897219751585,9.882953190205464,38.55946,-1,-1,-1,-1,9.519085617248134,5.63601519283635,-9999,3576.442543375,0.0452117919921875,-0.0627288818359375,-0.9884796142578125,3576.437505375,-0.0008317216245019399,-0.001406316902158974,-0.001020599912658942,0.01988159492611885,0.008324151858687401,0.00268610892817378,-0.0002035722136497498,0.007088176906108856,0.005183577537536621,XArbitraryZVertical,-0.000510592134724099,-0.0007029459650401919,-0.0004155017850224307,0.9999996245897831,0.04544589668512344,-0.06658221036195755,-0.9967454671859741,0,0,0,-1,-1,3542.123566166667,unknown,2,2026-04-24T18:34:45.265+02:00,2026-04-24T18:20:19.173+02:00,16,0.7102333,0,0,12.45568,0,0,2026-04-24T18:28:28.837+02:00,798741318.8894778,0,1.99,101.5412,1,0.85,0
2026-04-24T18:35:19.615+02:00,1777048513.800981,53.56897219751585,9.882953190205464,38.55946,-1,-1,-1,-1,9.519085617248134,5.63601519283635,-9999,3576.452617375,0.0446624755859375,-0.061126708984375,-0.9872283935546875,3576.447580375,-0.000804516015464522,-0.00135469334964502,-0.0008059450492362116,0.01266325730830431,0.003110747784376144,0.001085549127310514,-0.0003142431378364563,0.004099056124687195,0.007867693901062012,XArbitraryZVertical,-0.0004032448161336533,-0.0006771843462828694,-0.000401984879525221,0.9999997091775386,0.04549553245306015,-0.06679742783308029,-0.996728777885437,0,0,0,-1,-1,3542.123566166667,unknown,2,2026-04-24T18:34:45.265+02:00,2026-04-24T18:20:19.173+02:00,16,0.7102333,0,0,12.45568,0,0,2026-04-24T18:28:28.837+02:00,798741318.8894778,0,1.99,101.5412,1,0.85,0
2026-04-24T18:35:19.617+02:00,1777048513.800981,53.56897219751585,9.882953190205464,38.55946,-1,-1,-1,-1,9.519085617248134,5.63601519283635,-9999,3576.462692375,0.0447540283203125,-0.0697784423828125,-0.988922119140625,3576.457655375,-0.0007884170351418222,-0.001306809402114884,-0.0006802847280961249,0.00953404325991869,0.002379177371039987,-0.0008327257819473743,-0.0008491724729537964,0.005125313997268677,0.009367763996124268,XArbitraryZVertical,-0.0003403997966563662,-0.0006532704034440737,-0.0003939861042801815,0.9999997667959721,0.04554218426346779,-0.06692342460155487,-0.9967182278633118,0,0,0,-1,-1,3542.123566166667,unknown,2,2026-04-24T18:34:45.265+02:00,2026-04-24T18:20:19.173+02:00,16,0.7102333,0,0,12.45568,0,0,2026-04-24T18:28:28.837+02:00,798741318.8894778,0,1.99,101.5412,1,0.85,0
2026-04-24T18:35:19.621+02:00,1777048513.800981,53.56897219751585,9.882953190205464,38.55946,-1,-1,-1,-1,9.519085617248134,5.63601519283635,-9999,3576.472766375,0.046173095703125,-0.076812744140625,-0.9929656982421875,3576.467729375,-0.0007745744987105349,-0.001273347104288867,-0.0006070632581464176,0.005550220143049955,0.001700071152299643,0.002881451742723584,-0.00101892277598381,0.002437092363834381,0.009361326694488525,XArbitraryZVertical,-0.0003037780941889088,-0.0006365558332834647,-0.0003870938655402205,0.9999997468521616,0.045574601739645,-0.06699704378843307,-0.996711790561676,0,0,0,-1,-1,3542.123566166667,unknown,2,2026-04-24T18:34:45.265+02:00,2026-04-24T18:20:19.173+02:00,16,0.7102333,0,0,12.45568,0,0,2026-04-24T18:28:28.837+02:00,798741318.8894778,0,1.99,101.5412,1,0.85,0
2026-04-24T18:35:19.630+02:00,1777048513.800981,53.56897219751585,9.882953190205464,38.55946,-1,-1,-1,-1,9.519085617248134,5.63601519283635,-9999,3576.482841375,0.046234130859375,-0.0715789794921875,-0.9918975830078125,3576.477804375,-0.0007480461458878727,-0.001236353613043491,-0.0005913801230038897,-0.001364677213132381,0.003589584026485682,0.0007844787323847413,0.0001361779868602753,-0.00792200118303299,0.005162417888641357,XArbitraryZVertical,-0.0002959211580122837,-0.000618066030380678,-0.0003738401444005891,0.9999998112619071,0.04560968652367592,-0.06701391935348511,-0.9967090487480164,0,0,0,-1,-1,3542.123566166667,unknown,2,2026-04-24T18:34:45.265+02:00,2026-04-24T18:20:19.173+02:00,16,0.7102333,0,0,12.45568,0,0,2026-04-24T18:28:28.837+02:00,798741318.8894778,0,1.99,101.5412,1,0.85,0
2026-04-24T18:35:19.639+02:00,1777048513.800981,53.56897219751585,9.882953190205464,38.55946,-1,-1,-1,-1,9.519085617248134,5.63601519283635,-9999,3576.49291625,0.0481109619140625,-0.0679931640625,-0.9911346435546875,3576.487878375,-0.0007312400374693296,-0.00124868845714816,-0.0005910106790451706,-0.003063401207327843,-0.001467758789658546,-0.0006863183807581663,0.0003327205777168274,-0.008531205356121063,0.004583120346069336,XArbitraryZVertical,-0.0002957335117099118,-0.0006242360365924795,-0.0003654354030626708,0.9999997584220026,0.04559624940156937,-0.06701506674289703,-0.9967095851898193,0,0,0,-1,-1,3542.123566166667,unknown,2,2026-04-24T18:34:45.265+02:00,2026-04-24T18:20:19.173+02:00,16,0.7102333,0,0,12.45568,0,0,2026-04-24T18:28:28.837+02:00,798741318.8894778,0,1.99,101.5412,1,0.85,0
2026-04-24T18:35:19.649+02:00,1777048513.800981,53.56897219751585,9.882953190205464,38.55946,-1,-1,-1,-1,9.519085617248134,5.63601519283635,-9999,3576.50299025,0.0491485595703125,-0.0665130615234375,-0.9922027587890625,3576.49795325,-0.0007318657911065285,-0.001307925506210615,-0.0006105930588824246,-0.003354218322783709,-0.003662203904241323,0.0006220926297828555,0.001765012741088867,-0.002645604312419891,0.005685746669769287,XArbitraryZVertical,-0.0003055357300275103,-0.0006538508813263084,-0.000365733121172977,0.9999997230013169,0.04553724825382233,-0.0669955238699913,-0.9967135787010193,0,0,0,-1,-1,3542.123566166667,unknown,2,2026-04-24T18:34:45.265+02:00,2026-04-24T18:20:19.173+02:00,16,0.7102333,0,0,12.45568,0,0,2026-04-24T18:28:28.837+02:00,798741318.8894778,0,1.99,101.5412,1,0.85,0
2026-04-24T18:35:19.660+02:00,1777048513.800981,53.56897219751585,9.882953190205464,38.55946,-1,-1,-1,-1,9.519085617248134,5.63601519283635,-9999,3576.51306525,0.0463104248046875,-0.06634521484375,-0.9929656982421875,3576.50802825,-0.0007548292580313938,-0.001360879769752761,-0.0006657922648032983,0.001179014449007809,-0.001930349972099066,-0.001830678666010499,0.004135582596063614,0.0006857588887214661,0.005203604698181152,XArbitraryZVertical,-0.0003331528170339665,-0.0006803140730014594,-0.0003771879775193717,0.9999996910205532,0.04548601433634758,-0.06693942844867706,-0.9967196583747864,0,0,0,-1,-1,3542.123566166667,unknown,2,2026-04-24T18:34:45.265+02:00,2026-04-24T18:20:19.173+02:00,16,0.7102333,0,0,12.45568,0,0,2026-04-24T18:28:28.837+02:00,798741318.8894778,0,1.99,101.5412,1,0.85,0
2026-04-24T18:35:19.669+02:00,1777048513.800981,53.56897219751585,9.882953190205464,38.55946,-1,-1,-1,-1,9.519085617248134,5.63601519283635,-9999,3576.52314025,0.0440673828125,-0.06195068359375,-0.993804931640625,3576.51810225,-0.0007766939448540763,-0.001361082797485892,-0.000681710334596669,0.003123122034594417,0.003274532034993172,-0.000759821617975831,0.00135720893740654,0.0002873912453651428,0.005143642425537109,XArbitraryZVertical,-0.0003411193346214958,-0.000680408870211815,-0.0003881148755506291,0.99999965724589,0.04548728838562965,-0.06692253798246384,-0.9967207908630371,0,0,0,-1,-1,3542.123566166667,unknown,2,2026-04-24T18:34:45.265+02:00,2026-04-24T18:20:19.173+02:00,16,0.7102333,0,0,12.45568,0,0,2026-04-24T18:28:28.837+02:00,798741318.8894778,0,1.99,101.5412,1,0.85,0
2026-04-24T18:35:19.679+02:00,1777048513.800981,53.56897219751585,9.882953190205464,38.55946,-1,-1,-1,-1,9.519085617248134,5.63601519283635,-9999,3576.53321425,0.0441436767578125,-0.0593109130859375,-0.9910736083984375,3576.52817725,-0.0007852508422289408,-0.001337432953847451,-0.0006617272522658533,0.006173559930175543,0.002643362851813436,-0.000638048630207777,0.0001581273972988129,0.00280936062335968,0.002440392971038818,XArbitraryZVertical,-0.0003311260593548813,-0.0006685864006380997,-0.0003924040285535311,0.99999969385829,0.04551144316792488,-0.06694205850362778,-0.9967183470726013,0,0,0,-1,-1,3542.123566166667,unknown,2,2026-04-24T18:34:45.265+02:00,2026-04-24T18:20:19.173+02:00,16,0.7102333,0,0,12.45568,0,0,2026-04-24T18:28:28.837+02:00,798741318.8894778,0,1.99,101.5412,1,0.85,0
2026-04-24T18:35:19.689+02:00,1777048513.800981,53.56897219751585,9.882953190205464,38.55946,-1,-1,-1,-1,9.519085617248134,5.63601519283635,-9999,3576.54328925,0.0453338623046875,-0.063751220703125,-0.991485595703125,3576.53825125,-0.0007859378650254452,-0.001319062384503912,-0.0006603009332925007,2.938113175332546e-05,0.001756796613335609,-1.060788054019213e-05,-0.001203004270792007,0.006671227514743805,0.004804611206054688,XArbitraryZVertical,-0.0003304095235221438,-0.0006594012887326545,-0.0003927510531680544,0.9999996963886866,0.0455297976732254,-0.0669434443116188,-0.9967173933982849,0,0,0,-1,-1,3542.123566166667,unknown,2,2026-04-24T18:34:45.265+02:00,2026-04-24T18:20:19.173+02:00,16,0.7102333,0,0,12.45568,0,0,2026-04-24T18:28:28.837+02:00,798741318.8894778,0,1.99,101.5412,1,0.85,0
2026-04-24T18:35:19.699+02:00,1777048513.800981,53.56897219751585,9.882953190205464,38.55946,-1,-1,-1,-1,9.519085617248134,5.63601519283635,-9999,3576.55336325,0.044647216796875,-0.0702667236328125,-0.9905853271484375,3576.54832625,-0.000781995433594766,-0.001305287757049769,-0.0006804544645720025,-0.0008094081422314048,0.003313414286822081,0.001043071737512946,-0.0003009326756000519,0.006071478128433228,0.006224393844604492,XArbitraryZVertical,-0.0003404823022578033,-0.0006525107026742882,-0.0003907755454787492,0.9999996739881328,0.04554325714707375,-0.06692354381084442,-0.996718168258667,0,0,0,-1,-1,3542.123566166667,unknown,2,2026-04-24T18:34:45.265+02:00,2026-04-24T18:20:19.173+02:00,16,0.7102333,0,0,12.45568,0,0,2026-04-24T18:28:28.837+02:00,798741318.8894778,0,1.99,101.5412,1,0.85,0
2026-04-24T18:35:19.709+02:00,1777048513.800981,53.56897219751585,9.882953190205464,38.55946,-1,-1,-1,-1,9.519085617248134,5.63601519283635,-9999,3576.56343825,0.0440521240234375,-0.0718536376953125,-0.9912109375,3576.55840125,-0.0007694079405974057,-0.001296725980052964,-0.0006843782530523745,-0.006450516171753407,0.0003373315557837486,0.00238024489954114,-0.0007968991994857788,-0.0006456971168518066,0.005858004093170166,XArbitraryZVertical,-0.0003424384251696811,-0.0006482311695449914,-0.0003844819664645625,0.9999997308691004,0.04555094614624977,-0.06692022830247879,-0.9967179894447327,0,0,0,-1,-1,3542.123566166667,unknown,2,2026-04-24T18:34:45.265+02:00,2026-04-24T18:20:19.173+02:00,16,0.7102333,0,0,12.45568,0,0,2026-04-24T18:28:28.837+02:00,798741318.8894778,0,1.99,101.5412,1,0.85,0
2026-04-24T18:35:19.720+02:00,1777048513.800981,53.56897219751585,9.882953190205464,38.55946,-1,-1,-1,-1,9.519085617248134,5.63601519283635,-9999,3576.57351325,0.045318603515625,-0.0701904296875,-0.9923858642578125,3576.56847525,-0.000728442534453967,-0.001288995474821039,-0.0007366647365614834,-0.009491473436355591,-0.001653913874179125,0.001113445847295225,-0.001015458256006241,-0.005593962967395782,0.006380021572113037,XArbitraryZVertical,-0.0003685669754818006,-0.00064436341123391,-0.0003639837465449644,0.9999997213352487,0.04555587470531464,-0.06687003374099731,-0.9967211484909058,0,0,0,-1,-1,3542.123566166667,unknown,2,2026-04-24T18:34:45.265+02:00,2026-04-24T18:20:19.173+02:00,16,0.7102333,0,0,12.45568,0,0,2026-04-24T18:28:28.837+02:00,798741318.8894778,0,1.99,101.5412,1,0.85,0
2026-04-24T18:35:19.730+02:00,1777048513.800981,53.56897219751585,9.882953190205464,38.55946,-1,-1,-1,-1,9.519085617248134,5.63601519283635,-9999,3576.58358725,0.04803466796875,-0.06878662109375,-0.9933013916015625,3576.57855025,-0.0007070171881070072,-0.001309288904951309,-0.0008114941397002448,-0.006222975440323353,-0.00499538192525506,0.00192517729010433,-0.0009479932487010956,-0.004126407206058502,0.005516171455383301,XArbitraryZVertical,-0.0004059783483607663,-0.000654500842953551,-0.0003532428440611068,0.9999996913536984,0.04553419351577759,-0.06679645925760269,-0.9967271089553833,0,0,0,-1,-1,3542.123566166667,unknown,2,2026-04-24T18:34:45.265+02:00,2026-04-24T18:20:19.173+02:00,16,0.7102333,0,0,12.45568,0,0,2026-04-24T18:28:28.837+02:00,798741318.8894778,0,1.99,101.5412,1,0.85,0
2026-04-24T18:35:19.740+02:00,1777048513.800981,53.56897219751585,9.882953190205464,38.55946,-1,-1,-1,-1,9.519085617248134,5.63601519283635,-9999,3576.59366225,0.0474853515625,-0.0628662109375,-0.9915008544921875,3576.58862425,-0.0007076784306032068,-0.001346478592831659,-0.0008426062728680386,-0.0001292367815040052,-0.00445236312225461,-0.001584536163136363,0.001713544130325317,-0.002753645181655884,0.00376516580581665,XArbitraryZVertical,-0.0004215412117090444,-0.0006730900560571652,-0.0003535554511613277,0.9999996430485273,0.04549716413021088,-0.06676541268825531,-0.9967308640480042,0,0,0,-1,-1,3542.123566166667,unknown,2,2026-04-24T18:34:45.265+02:00,2026-04-24T18:20:19.173+02:00,16,0.7102333,0,0,12.45568,0,0,2026-04-24T18:28:28.837+02:00,798741318.8894778,0,1.99,101.5412,1,0.85,0
2026-04-24T18:35:19.750+02:00,1777048513.800981,53.56897219751585,9.882953190205464,38.55946,-1,-1,-1,-1,9.519085617248134,5.63601519283635,-9999,3576.60373625,0.0475616455078125,-0.0561065673828125,-0.9915313720703125,3576.59869925,-0.0007467231979252929,-0.001401834123342814,-0.0008140371295522551,0.007150514051318169,-0.00758424075320363,-0.004129186738282442,0.002437464892864227,0.0004620850086212158,0.004284560680389404,XArbitraryZVertical,-0.0004072801081129094,-0.0007007649107699548,-0.0003730761699878023,0.9999996326850942,0.04544463008642197,-0.06679205596446991,-0.9967314600944519,0,0,0,-1,-1,3542.123566166667,unknown,2,2026-04-24T18:34:45.265+02:00,2026-04-24T18:20:19.173+02:00,16,0.7102333,0,0,12.45568,0,0,2026-04-24T18:28:28.837+02:00,798741318.8894778,0,1.99,101.5412,1,0.85,0
2026-04-24T18:35:19.760+02:00,1777048513.800981,53.56897219751585,9.882953190205464,38.55946,-1,-1,-1,-1,9.519085617248134,5.63601519283635,-9999,3576.61381125,0.04510498046875,-0.0599517822265625,-0.99127197265625,3576.60877425,-0.0007846330738609369,-0.001474494328972711,-0.0007517149927747067,0.006912108045071363,-0.005132800899446011,-0.003329039551317692,0.001790151000022888,0.007800877094268799,0.004772007465362549,XArbitraryZVertical,-0.0003761465694046137,-0.0007370994922376174,-0.00039203927061997,0.9999996371948278,0.04537478089332581,-0.0668523982167244,-0.996730625629425,0,0,0,-1,-1,3542.123566166667,unknown,2,2026-04-24T18:34:45.265+02:00,2026-04-24T18:20:19.173+02:00,16,0.7102333,0,0,12.45568,0,0,2026-04-24T18:28:28.837+02:00,798741318.8894778,0,1.99,101.5412,1,0.85,0
2026-04-24T18:35:19.770+02:00,1777048513.800981,53.56897219751585,9.882953190205464,38.55946,-1,-1,-1,-1,9.519085617248134,5.63601519283635,-9999,3576.62388625,0.0452880859375,-0.065704345703125,-0.991058349609375,3576.61884825,-0.0008179850642009119,-0.001532241423856507,-0.0007018638519519339,0.006461767479777336,-0.004897377453744411,-0.004039837047457695,0.001097772270441055,0.01062609255313873,0.005015432834625244,XArbitraryZVertical,-0.0003512451189378828,-0.0007659769861746629,-0.0004087235134227005,0.9999995758825374,0.04531947895884514,-0.06690051406621933,-0.9967299103736877,0,0,0,-1,-1,3542.123566166667,unknown,2,2026-04-24T18:34:45.265+02:00,2026-04-24T18:20:19.173+02:00,16,0.7102333,0,0,12.45568,0,0,2026-04-24T18:28:28.837+02:00,798741318.8894778,0,1.99,101.5412,1,0.85,0
2026-04-24T18:35:19.780+02:00,1777048513.800981,53.56897219751585,9.882953190205464,38.55946,-1,-1,-1,-1,9.519085617248134,5.63601519283635,-9999,3576.63396025,0.0438385009765625,-0.0693817138671875,-0.99053955078125,3576.62892325,-0.0008709039272742461,-0.00158195178757161,-0.0006488937256961398,0.008384675718843937,-0.003894164692610502,-0.003229637397453189,-0.0008093863725662231,0.00435926765203476,0.005929648876190186,XArbitraryZVertical,-0.0003247911482960666,-0.0007908343929536706,-0.0004351951497319754,0.9999995661066887,0.04527351260185242,-0.06695083528757095,-0.9967285990715027,0,0,0,-1,-1,3542.123566166667,unknown,2,2026-04-24T18:34:45.265+02:00,2026-04-24T18:20:19.173+02:00,16,0.7102333,0,0,12.45568,0,0,2026-04-24T18:28:28.837+02:00,798741318.8894778,0,1.99,101.5412,1,0.85,0
2026-04-24T18:35:19.790+02:00,1777048513.800981,53.56897219751585,9.882953190205464,38.55946,-1,-1,-1,-1,9.519085617248134,5.63601519283635,-9999,3576.64403525,0.0426177978515625,-0.0700836181640625,-0.99127197265625,3576.63899725,-0.0008867606729165099,-0.001624487555799739,-0.0006384505484277507,-0.00581343425437808,-0.001317290123552084,-0.0008564946474507451,0.0002237595617771149,0.0005389750003814697,0.005686759948730469,XArbitraryZVertical,-0.0003195852601612331,-0.0008121020170426149,-0.0004431208577647275,0.9999995359860271,0.04523218795657158,-0.06696049869060516,-0.996729850769043,0,0,0,-1,-1,3542.123566166667,unknown,2,2026-04-24T18:34:45.265+02:00,2026-04-24T18:20:19.173+02:00,16,0.7102333,0,0,12.45568,0,0,2026-04-24T18:28:28.837+02:00,798741318.8894778,0,1.99,101.5412,1,0.85,0
2026-04-24T18:35:19.800+02:00,1777048513.800981,53.56897219751585,9.882953190205464,38.55946,-1,-1,-1,-1,9.519085617248134,5.63601519283635,-9999,3576.65410925,0.042999267578125,-0.0702056884765625,-0.9907989501953125,3576.64907225,-0.0008795620647753134,-0.001641179868540316,-0.0006967888048459274,-0.01349681429564953,0.0002390611916780472,0.0004088399873580784,-0.003131303936243057,-0.003882847726345062,0.005859255790710449,XArbitraryZVertical,-0.0003487551152883233,-0.0008204364749190203,-0.0004394949433879153,0.9999995315480186,0.04521505907177925,-0.06690268963575363,-0.9967344999313354,0,0,0,-1,-1,3542.123566166667,unknown,2,2026-04-24T18:34:45.265+02:00,2026-04-24T18:20:19.173+02:00,16,0.7102333,0,0,12.45568,0,0,2026-04-24T18:28:28.837+02:00,798741318.8894778,0,1.99,101.5412,1,0.85,0
2026-04-24T18:35:19.810+02:00,1777048513.800981,53.56897219751585,9.882953190205464,38.55946,-1,-1,-1,-1,9.519085617248134,5.63601519283635,-9999,3576.66418425,0.0430145263671875,-0.0733489990234375,-0.9911956787109375,3576.65914725,-0.0008637129028951797,-0.001621779392001755,-0.0008250240183977843,-0.014391103759408,0.002720328280702233,0.003448572009801865,-0.002966452389955521,-0.002865493297576904,0.005546510219573975,XArbitraryZVertical,-0.0004128619962260013,-0.0008107112871288713,-0.0004315217419563091,0.9999995294376339,0.04523331299424171,-0.06677562743425369,-0.9967421889305115,0,0,0,-1,-1,3542.123566166667,unknown,2,2026-04-24T18:34:45.265+02:00,2026-04-24T18:20:19.173+02:00,16,0.7102333,0,0,12.45568,0,0,2026-04-24T18:28:28.837+02:00,798741318.8894778,0,1.99,101.5412,1,0.85,0
2026-04-24T18:35:19.821+02:00,1777048513.800981,53.56897219751585,9.882953190205464,38.55946,-1,-1,-1,-1,9.519085617248134,5.63601519283635,-9999,3576.67425925,0.04156494140625,-0.071258544921875,-0.989990234375,3576.66922125,-0.0008318372950913113,-0.001566154614854132,-0.0009389665817219258,-0.009857018478214741,0.002595425816252828,0.00368852261453867,-0.001921094954013824,-0.005586817860603333,0.005643129348754883,XArbitraryZVertical,-0.0004698087581147744,-0.0007828817611370077,-0.00041555079647536,0.9999995549216134,0.04528659209609032,-0.06666356325149536,-0.9967472553253174,0,0,0,-1,-1,3542.123566166667,unknown,2,2026-04-24T18:34:45.265+02:00,2026-04-24T18:20:19.173+02:00,16,0.7102333,0,0,12.45568,0,0,2026-04-24T18:28:28.837+02:00,798741318.8894778,0,1.99,101.5412,1,0.85,0
2026-04-24T18:35:19.831+02:00,1777048513.800981,53.56897219751585,9.882953190205464,38.55946,-1,-1,-1,-1,9.519085617248134,5.63601519283635,-9999,3576.68433325,0.04364013671875,-0.0613555908203125,-0.9925384521484375,3576.67929625,-0.0008075561675569521,-0.001514849160460881,-0.001016816420328569,-0.004056387115269899,0.002775988075882196,0.001342011382803321,-0.003404911607503891,-0.007433287799358368,0.006851434707641602,XArbitraryZVertical,-0.000508713799000648,-0.0007572190146005731,-0.0004033927976464671,0.9999995680318454,0.04533608257770538,-0.06658710539340973,-0.9967501163482666,0,0,0,-1,-1,3542.123566166667,unknown,2,2026-04-24T18:34:45.265+02:00,2026-04-24T18:20:19.173+02:00,16,0.7102333,0,0,12.45568,0,0,2026-04-24T18:28:28.837+02:00,798741318.8894778,0,1.99,101.5412,1,0.85,0
2026-04-24T18:35:19.841+02:00,1777048513.800981,53.56897219751585,9.882953190205464,38.55946,-1,-1,-1,-1,9.519085617248134,5.63601519283635,-9999,3576.69440825,0.04656982421875,-0.05670166015625,-0.9930267333984375,3576.68937025,-0.0008013483018537133,-0.001459607415643611,-0.001031658157686125,0.01057912036776543,0.005386418662965298,0.00113854615483433,-0.003642652183771133,-0.0001998767256736755,0.006071746349334717,XArbitraryZVertical,-0.0005161212877805947,-0.0007295968040739367,-0.0004002975241228241,0.9999995259945071,0.04539071768522263,-0.06657259911298752,-0.9967486262321472,0,0,0,-1,-1,3542.123566166667,unknown,2,2026-04-24T18:34:45.265+02:00,2026-04-24T18:20:19.173+02:00,16,0.7102333,0,0,12.45568,0,0,2026-04-24T18:28:28.837+02:00,798741318.8894778,0,1.99,101.5412,1,0.85,0
2026-04-24T18:35:19.851+02:00,1777048513.800981,53.56897219751585,9.882953190205464,38.55946,-1,-1,-1,-1,9.519085617248134,5.63601519283635,-9999,3576.70448225,0.0463714599609375,-0.0563507080078125,-0.9934234619140625,3576.69944525,-0.0008051634949334951,-0.001412887618895557,-0.0009522975856171689,0.01574485562741756,0.005643147509545088,0.001668515265919268,0.0004303790628910065,0.009003810584545135,0.004294335842132568,XArbitraryZVertical,-0.0004764330087946088,-0.0007062519098929856,-0.0004022452098298276,0.9999995770530297,0.04543755203485489,-0.06665152311325073,-0.9967411756515503,0,0,0,-1,-1,3542.123566166667,unknown,2,2026-04-24T18:34:45.265+02:00,2026-04-24T18:20:19.173+02:00,16,0.7102333,0,0,12.45568,0,0,2026-04-24T18:28:28.837+02:00,798741318.8894778,0,1.99,101.5412,1,0.85,0
2026-04-24T18:35:19.861+02:00,1777048513.800981,53.56897219751585,9.882953190205464,38.55946,-1,-1,-1,-1,9.519085617248134,5.63601519283635,-9999,3576.71455725,0.04693603515625,-0.0580291748046875,-0.9920654296875,3576.70952025,-0.0008059608212552428,-0.001370656115382992,-0.0007582713950832264,0.02322982996702194,0.00346548086963594,1.056439941748977e-05,0.001624185591936111,0.01049414277076721,0.002600967884063721,XArbitraryZVertical,-0.0003794117449379934,-0.000685175119552196,-0.000402720446555589,0.9999996054456499,0.04547971487045288,-0.06684485822916031,-0.9967263340950012,0,0,0,-1,-1,3542.123566166667,unknown,2,2026-04-24T18:34:45.265+02:00,2026-04-24T18:20:19.173+02:00,16,0.7102333,0,0,12.45568,0,0,2026-04-24T18:28:28.837+02:00,798741318.8894778,0,1.99,101.5412,1,0.85,0
2026-04-24T18:35:19.871+02:00,1777048513.800981,53.56897219751585,9.882953190205464,38.55946,-1,-1,-1,-1,9.519085617248134,5.63601519283635,-9999,3576.72463225,0.04559326171875,-0.0602569580078125,-0.9918670654296875,3576.71959425,-0.0008080998531263856,-0.001334329879511788,-0.0005328069372263865,0.01852934807538986,0.00329344067722559,0.0002718205214478076,0.0009011663496494293,0.01044408977031708,0.004033803939819336,XArbitraryZVertical,-0.0002666729530924799,-0.0006670571737455,-0.0004038720774281952,0.9999996575680394,0.04551608487963676,-0.06706947088241577,-0.9967095851898193,0,0,0,-1,-1,3542.123566166667,unknown,2,2026-04-24T18:34:45.265+02:00,2026-04-24T18:20:19.173+02:00,16,0.7102333,0,0,12.45568,0,0,2026-04-24T18:28:28.837+02:00,798741318.8894778,0,1.99,101.5412,1,0.85,0
2026-04-24T18:35:19.881+02:00,1777048513.800981,53.56897219751585,9.882953190205464,38.55946,-1,-1,-1,-1,9.519085617248134,5.63601519283635,-9999,3576.73470625,0.045684814453125,-0.0666046142578125,-0.994384765625,3576.72966925,-0.0008026125745685295,-0.0013127951637561,-0.0003526703379841249,0.01216269005089998,0.002817800035700202,0.000931884627789259,0.0008190236985683441,0.008090920746326447,0.004936277866363525,XArbitraryZVertical,-0.0001765985397871307,-0.0006563267348841137,-0.0004011904547231373,0.9999996464909928,0.04553719237446785,-0.06724925339221954,-0.9966964721679688,0,0,0,-1,-1,3542.123566166667,unknown,2,2026-04-24T18:34:45.265+02:00,2026-04-24T18:20:19.173+02:00,16,0.7102333,0,0,12.45568,0,0,2026-04-24T18:28:28.837+02:00,798741318.8894778,0,1.99,101.5412,1,0.85,0
2026-04-24T18:35:19.891+02:00,1777048513.800981,53.56897219751585,9.882953190205464,38.55946,-1,-1,-1,-1,9.519085617248134,5.63601519283635,-9999,3576.74478125,0.0429534912109375,-0.07562255859375,-0.9939727783203125,3576.73974425,-0.0007809925342518782,-0.00130648579412828,-0.0002705826691962685,0.001002446748316288,0.001673439750447869,0.00214468827471137,0.0006005577743053436,0.005839154124259949,0.004335343837738037,XArbitraryZVertical,-0.0001355463751528158,-0.000653189922133163,-0.0003904077671607442,0.999999765493237,0.04554203525185585,-0.06733208894729614,-0.9966906905174255,0,0,0,-1,-1,3542.123566166667,unknown,2,2026-04-24T18:34:45.265+02:00,2026-04-24T18:20:19.173+02:00,16,0.7102333,0,0,12.45568,0,0,2026-04-24T18:28:28.837+02:00,798741318.8894778,0,1.99,101.5412,1,0.85,0
2026-04-24T18:35:19.901+02:00,1777048513.800981,53.56897219751585,9.882953190205464,38.55946,-1,-1,-1,-1,9.519085617248134,5.63601519283635,-9999,3576.75485525,0.044097900390625,-0.07586669921875,-0.9906005859375,3576.74981825,-0.0007596193106052509,-0.001290241308966339,-0.0002795237787984637,-0.007901405915617943,0.00163935124874115,0.001922181225381792,-0.0007874779403209686,-0.004392139613628387,0.001893818378448486,XArbitraryZVertical,-0.0001400068609633807,-0.0006450674196249312,-0.0003797193681596967,0.9999997943589081,0.04555678367614746,-0.06732418388128281,-0.9966905117034912,0,0,0,-1,-1,3542.123566166667,unknown,2,2026-04-24T18:34:45.265+02:00,2026-04-24T18:20:19.173+02:00,16,0.7102333,0,0,12.45568,0,0,2026-04-24T18:28:28.837+02:00,798741318.8894778,0,1.99,101.5412,1,0.85,0
2026-04-24T18:35:19.911+02:00,1777048513.800981,53.56897219751585,9.882953190205464,38.55946,-1,-1,-1,-1,9.519085617248134,5.63601519283635,-9999,3576.76493025,0.0472869873046875,-0.072357177734375,-0.9888458251953125,3576.75989325,-0.0007402272053709747,-0.001300944064330785,-0.0003614797706090457,-0.01482349447906017,1.375749707221985e-05,-0.0001348444493487477,-0.002057231962680817,-0.009645640850067139,0.004798948764801025,XArbitraryZVertical,-0.0001809805680339912,-0.000650404985989273,-0.0003699959147493554,0.9999997818668488,0.04554479569196701,-0.06724341213703156,-0.9966965317726135,0,0,0,-1,-1,3542.123566166667,unknown,2,2026-04-24T18:34:45.265+02:00,2026-04-24T18:20:19.173+02:00,16,0.7102333,0,0,12.45568,0,0,2026-04-24T18:28:28.837+02:00,798741318.8894778,0,1.99,101.5412,1,0.85,0
2026-04-24T18:35:19.921+02:00,1777048513.800981,53.56897219751585,9.882953190205464,38.55946,-1,-1,-1,-1,9.519085617248134,5.63601519283635,-9999,3576.77500525,0.048828125,-0.070648193359375,-0.98834228515625,3576.76996725,-0.0007395140080477604,-0.001357860963869765,-0.0005360288550461635,-0.01661947555840015,-0.00544625474140048,0.0003118342719972134,0.0006240755319595337,-0.006645739078521729,0.007544577121734619,XArbitraryZVertical,-0.000268265360809769,-0.0006788312015284454,-0.0003695749028074058,0.9999997497031052,0.04548800364136696,-0.06706948578357697,-0.9967108368873596,0,0,0,-1,-1,3542.123566166667,unknown,2,2026-04-24T18:34:45.265+02:00,2026-04-24T18:20:19.173+02:00,16,0.7102333,0,0,12.45568,0,0,2026-04-24T18:28:28.837+02:00,798741318.8894778,0,1.99,101.5412,1,0.85,0
2026-04-24T18:35:19.931+02:00,1777048513.800981,53.56897219751585,9.882953190205464,38.55946,-1,-1,-1,-1,9.519085617248134,5.63601519283635,-9999,3576.78507925,0.04437255859375,-0.0693817138671875,-0.9908905029296875,3576.78004225,-0.00074568175377042,-0.001373068509874064,-0.0007167852544277978,-0.01194456405937672,-0.00152022298425436,-0.0001603441778570414,0.002302039414644241,-0.00414063036441803,0.008228778839111328,XArbitraryZVertical,-0.000358648448788665,-0.0006864004296992268,-0.0003725946772313235,0.9999997124832497,0.04547324776649475,-0.06688904017210007,-0.9967236518859863,0,0,0,-1,-1,3542.123566166667,unknown,2,2026-04-24T18:34:45.265+02:00,2026-04-24T18:20:19.173+02:00,16,0.7102333,0,0,12.45568,0,0,2026-04-24T18:28:28.837+02:00,798741318.8894778,0,1.99,101.5412,1,0.85,0
2026-04-24T18:35:19.941+02:00,1777048513.800981,53.56897219751585,9.882953190205464,38.55946,-1,-1,-1,-1,9.519085617248134,5.63601519283635,-9999,3576.79515425,0.0448150634765625,-0.063201904296875,-0.99267578125,3576.79011725,-0.0007602508336583389,-0.001388371076078652,-0.0008395586878247778,-0.003259676042944193,-0.002532490994781256,-0.003851751796901226,0.001217678189277649,-0.00406530499458313,0.007062792778015137,XArbitraryZVertical,-0.0004200430413491085,-0.0006940257423791204,-0.0003798338451821037,0.9999996850691119,0.04545896872878075,-0.06676599383354187,-0.9967325329780579,0,0,0,-1,-1,3542.123566166667,unknown,2,2026-04-24T18:34:45.265+02:00,2026-04-24T18:20:19.173+02:00,16,0.7102333,0,0,12.45568,0,0,2026-04-24T18:28:28.837+02:00,798741318.8894778,0,1.99,101.5412,1,0.85,0
2026-04-24T18:35:19.951+02:00,1777048513.800981,53.56897219751585,9.882953190205464,38.55946,-1,-1,-1,-1,9.519085617248134,5.63601519283635,-9999,3576.80522825,0.045379638671875,-0.0599365234375,-0.993896484375,3576.80019125,-0.0007746708069733936,-0.001405508994846569,-0.0008567876124283983,0.008886735886335373,-0.001118884887546301,-7.512295269407332e-05,-0.0007803700864315033,0.0009217262268066406,0.004043459892272949,XArbitraryZVertical,-0.0004286658193640303,-0.000702588329033128,-0.000387034173261165,0.999999673709298,0.0454428605735302,-0.06674814969301224,-0.9967344999313354,0,0,0,-1,-1,3542.123566166667,unknown,2,2026-04-24T18:34:45.265+02:00,2026-04-24T18:20:19.173+02:00,16,0.7102333,0,0,12.45568,0,0,2026-04-24T18:28:28.837+02:00,798741318.8894778,0,1.99,101.5412,1,0.85,0
2026-04-24T18:35:19.962+02:00,1777048513.800981,53.56897219751585,9.882953190205464,38.55946,-1,-1,-1,-1,9.519085617248134,5.63601519283635,-9999,3576.81530325,0.0448150634765625,-0.05682373046875,-0.993072509765625,3576.81026625,-0.000768753133468716,-0.001422862254840544,-0.0007378425540843975,0.0172360111027956,-0.0003668079152703285,0.000985680497251451,1.551210880279541e-05,0.004870504140853882,0.004753470420837402,XArbitraryZVertical,-0.0003691945657528945,-0.0007112890854219957,-0.0003841139306075517,0.9999997125134615,0.0454251766204834,-0.06686697900295258,-0.9967273473739624,0,0,0,-1,-1,3542.123566166667,unknown,2,2026-04-24T18:34:45.265+02:00,2026-04-24T18:20:19.173+02:00,16,0.7102333,0,0,12.45568,0,0,2026-04-24T18:28:28.837+02:00,798741318.8894778,0,1.99,101.5412,1,0.85,0
2026-04-24T18:35:19.972+02:00,1777048513.800981,53.56897219751585,9.882953190205464,38.55946,-1,-1,-1,-1,9.519085617248134,5.63601519283635,-9999,3576.82537825,0.043426513671875,-0.0554046630859375,-0.98944091796875,3576.82034025,-0.0007690228696473854,-0.001398978000960562,-0.0005611476618726215,0.02043206989765167,0.002999427728354931,0.000643464270979166,0.000220566987991333,0.008678175508975983,0.001459896564483643,XArbitraryZVertical,-0.0002808426986597469,-0.0006993809786568793,-0.0003843150569240269,0.9999996446137279,0.04544900730252266,-0.06704305112361908,-0.9967144131660461,0,0,0,-1,-1,3542.123566166667,unknown,2,2026-04-24T18:34:45.265+02:00,2026-04-24T18:20:19.173+02:00,16,0.7102333,0,0,12.45568,0,0,2026-04-24T18:28:28.837+02:00,798741318.8894778,0,1.99,101.5412,1,0.85,0
2026-04-24T18:35:19.982+02:00,1777048513.800981,53.56897219751585,9.882953190205464,38.55946,-1,-1,-1,-1,9.519085617248134,5.63601519283635,-9999,3576.83545225,0.042022705078125,-0.062652587890625,-0.990509033203125,3576.83041525,-0.0007500299340281379,-0.001339355872638383,-0.0003210366599871795,0.01978609524667263,0.007800840772688389,0.002423987258225679,-0.001485548913478851,0.01245840638875961,0.006049215793609619,XArbitraryZVertical,-0.0001607694232663115,-0.0006696176421784173,-0.0003749073784308453,0.9999996800683129,0.04550717025995255,-0.06728325039148331,-0.9966955780982971,0,0,0,-1,-1,3542.123566166667,unknown,2,2026-04-24T18:34:45.265+02:00,2026-04-24T18:20:19.173+02:00,16,0.7102333,0,0,12.45568,0,0,2026-04-24T18:28:28.837+02:00,798741318.8894778,0,1.99,101.5412,1,0.85,0
2026-04-24T18:35:19.992+02:00,1777048513.800981,53.56897219751585,9.882953190205464,38.55946,-1,-1,-1,-1,9.519085617248134,5.63601519283635,-9999,3576.84552725,0.042236328125,-0.071441650390625,-0.991424560546875,3576.84049025,-0.000727743243254018,-0.001239554469223833,-9.616109428293454e-05,0.0188973993062973,0.0136555340141058,0.003462087595835328,-0.003017865121364594,0.008517935872077942,0.00723499059677124,XArbitraryZVertical,-4.830605186030875e-05,-0.0006197596304251386,-0.0003638417278538307,0.99999978515832,0.04560515657067299,-0.06750841438770294,-0.9966758489608765,0,0,0,-1,-1,3542.123566166667,unknown,2,2026-04-24T18:34:45.265+02:00,2026-04-24T18:20:19.173+02:00,16,0.7102333,0,0,12.45568,0,0,2026-04-24T18:28:28.837+02:00,798741318.8894778,0,1.99,101.5412,1,0.85,0
2026-04-24T18:35:20.002+02:00,1777048513.800981,53.56897219751585,9.882953190205464,38.55946,-1,-1,-1,-1,9.519085617248134,5.63601519283635,-9999,3576.85560125,0.04486083984375,-0.0732421875,-0.9907379150390625,3576.85056425,-0.0006965869260937613,-0.001127354665224198,7.271723872397231e-05,0.007525593508034945,0.007908165454864502,0.003889258718118072,-0.003951568156480789,5.121529102325439e-05,0.005082190036773682,XArbitraryZVertical,3.616228534323696e-05,-0.000563689917270163,-0.0003483138860730169,0.999999805351954,0.04571488872170448,-0.06767817586660385,-0.9966593384742737,0,0,0,-1,-1,3542.123566166667,unknown,2,2026-04-24T18:34:45.265+02:00,2026-04-24T18:20:19.173+02:00,16,0.7102333,0,0,12.45568,0,0,2026-04-24T18:28:28.837+02:00,798741318.8894778,0,1.99,101.5412,1,0.85,0
2026-04-24T18:35:20.012+02:00,1777048513.800981,53.56897219751585,9.882953190205464,38.55946,-1,-1,-1,-1,9.519085617248134,5.63601519283635,-9999,3576.86567625,0.04718017578125,-0.0737762451171875,-0.99163818359375,3576.86063925,-0.0006585812233506411,-0.001033245748019315,0.0001155528928080444,-0.00205699261277914,0.008906052447855473,0.003999513573944569,-0.002547431737184525,-0.005122818052768707,0.005441188812255859,XArbitraryZVertical,5.760631527898994e-05,-0.0005166418365779217,-0.0003293204029657365,0.9999998315921631,0.04580611735582352,-0.06772264838218689,-0.9966521263122559,0,0,0,-1,-1,3542.123566166667,unknown,2,2026-04-24T18:34:45.265+02:00,2026-04-24T18:20:19.173+02:00,16,0.7102333,0,0,12.45568,0,0,2026-04-24T18:28:28.837+02:00,798741318.8894778,0,1.99,101.5412,1,0.85,0
2026-04-24T18:35:20.022+02:00,1777048513.800981,53.56897219751585,9.882953190205464,38.55946,-1,-1,-1,-1,9.519085617248134,5.63601519283635,-9999,3576.87575125,0.047882080078125,-0.07568359375,-0.993072509765625,3576.87071325,-0.000618658406656628,-0.0009562155492023654,3.040284689003495e-05,-0.01535037346184254,0.003384254407137632,0.002408274449408054,0.0009643137454986572,-0.005114264786243439,0.005245029926300049,XArbitraryZVertical,1.505352790156522e-05,-0.0004781124230928929,-0.0003093364227658163,0.9999998641163002,0.04588018357753754,-0.06763965636491776,-0.9966543316841125,0,0,0,-1,-1,3542.123566166667,unknown,2,2026-04-24T18:34:45.265+02:00,2026-04-24T18:20:19.173+02:00,16,0.7102333,0,0,12.45568,0,0,2026-04-24T18:28:28.837+02:00,798741318.8894778,0,1.99,101.5412,1,0.85,0
2026-04-24T18:35:20.032+02:00,1777048513.800981,53.56897219751585,9.882953190205464,38.55946,-1,-1,-1,-1,9.519085617248134,5.63601519283635,-9999,3576.88582525,0.049652099609375,-0.077178955078125,-0.996002197265625,3576.88078825,-0.0005892724522911426,-0.00095269032562838,-0.0001762411780307844,-0.02364052832126617,0.001071831677109003,0.002761143259704113,0.001771513372659683,-0.006768405437469482,0.005091011524200439,XArbitraryZVertical,-8.826091898528305e-05,-0.000476319133871999,-0.0002945941961084697,0.9999998915290964,0.04588169977068901,-0.06743509322404861,-0.9966681599617004,0,0,0,-1,-1,3542.123566166667,unknown,2,2026-04-24T18:34:45.265+02:00,2026-04-24T18:20:19.173+02:00,16,0.7102333,0,0,12.45568,0,0,2026-04-24T18:28:28.837+02:00,798741318.8894778,0,1.99,101.5412,1,0.85,0
2026-04-24T18:35:20.042+02:00,1777048513.800981,53.56897219751585,9.882953190205464,38.55946,-1,-1,-1,-1,9.519085617248134,5.63601519283635,-9999,3576.89590025,0.053009033203125,-0.0736083984375,-0.99395751953125,3576.89086325,-0.0005944020087884162,-0.001003563191704434,-0.0004250503830621164,-0.0200133565813303,-0.008806630969047546,-0.001857909839600325,0.002386458218097687,-0.0103125125169754,0.002332985401153564,XArbitraryZVertical,-0.0002126742701259824,-0.000501718346471738,-0.0002970942956491795,0.999999871467406,0.04583133012056351,-0.06718688458204269,-0.9966872334480286,0,0,0,-1,-1,3542.123566166667,unknown,2,2026-04-24T18:34:45.265+02:00,2026-04-24T18:20:19.173+02:00,16,0.7102333,0,0,12.45568,0,0,2026-04-24T18:28:28.837+02:00,798741318.8894778,0,1.99,101.5412,1,0.85,0
2026-04-24T18:35:20.052+02:00,1777048513.800981,53.56897219751585,9.882953190205464,38.55946,-1,-1,-1,-1,9.519085617248134,5.63601519283635,-9999,3576.90597425,0.051361083984375,-0.062896728515625,-0.9918975830078125,3576.90093725,-0.0006298706800108585,-0.001118668542141486,-0.0006612905518897375,-0.01781092211604118,-0.01563604176044464,-0.004909093491733074,0.006176173686981201,-0.009054265916347504,0.0005840659141540527,XArbitraryZVertical,-0.0003308213367726865,-0.0005592300194293705,-0.0003147503089423404,0.9999997971556226,0.04571898281574249,-0.06694976985454559,-0.9967083334922791,0,0,0,-1,-1,3542.123566166667,unknown,2,2026-04-24T18:34:45.265+02:00,2026-04-24T18:20:19.173+02:00,16,0.7102333,0,0,12.45568,0,0,2026-04-24T18:28:28.837+02:00,798741318.8894778,0,1.99,101.5412,1,0.85,0
2026-04-24T18:35:20.062+02:00,1777048513.800981,53.56897219751585,9.882953190205464,38.55946,-1,-1,-1,-1,9.519085617248134,5.63601519283635,-9999,3576.91604925,0.050689697265625,-0.0582122802734375,-0.9935455322265625,3576.91101225,-0.0006967463560617277,-0.001314454874594087,-0.0008676937598456322,-0.01227591466158628,-0.0240151472389698,-0.007899823598563671,0.006702505052089691,-0.001938886940479279,0.003948509693145752,XArbitraryZVertical,-0.0004340756836501003,-0.0006570761129014736,-0.0003480879085344033,0.9999996822733752,0.045528344810009,-0.06674092262983322,-0.9967310428619385,0,0,0,-1,-1,3542.123566166667,unknown,2,2026-04-24T18:34:45.265+02:00,2026-04-24T18:20:19.173+02:00,16,0.7102333,0,0,12.45568,0,0,2026-04-24T18:28:28.837+02:00,798741318.8894778,0,1.99,101.5412,1,0.85,0
2026-04-24T18:35:20.072+02:00,1777048513.800981,53.56897219751585,9.882953190205464,38.55946,-1,-1,-1,-1,9.519085617248134,5.63601519283635,-9999,3576.92612425,0.045745849609375,-0.05859375,-0.997894287109375,3576.92108625,-0.0007672968253204213,-0.001553751210837211,-0.001042261726273621,-0.01545040216296911,-0.02355175465345383,-0.005956514738500118,0.005791865289211273,0.006810195744037628,0.004367709159851074,XArbitraryZVertical,-0.0005214286775473149,-0.0007766754137223328,-0.0003832433717949757,0.9999995146839189,0.04529457539319992,-0.06656362861394882,-0.9967535734176636,0,0,0,-1,-1,3542.123566166667,unknown,2,2026-04-24T18:34:45.265+02:00,2026-04-24T18:20:19.173+02:00,16,0.7102333,0,0,12.45568,0,0,2026-04-24T18:28:28.837+02:00,798741318.8894778,0,1.99,101.5412,1,0.85,0
2026-04-24T18:35:20.082+02:00,1777048513.800981,53.56897219751585,9.882953190205464,38.55946,-1,-1,-1,-1,9.519085617248134,5.63601519283635,-9999,3576.93619825,0.04461669921875,-0.0652008056640625,-0.9948883056640625,3576.93116125,-0.0007963429077128225,-0.001826501588923684,-0.001272016298506642,-0.03215720877051353,-0.02648682706058025,-0.0008086905581876636,0.003589875996112823,0.009097538888454437,-0.0003196597099304199,XArbitraryZVertical,-0.000636371425402095,-0.0009129971765628566,-0.0003975903647201592,0.9999992947809708,0.04502464458346367,-0.06633327156305313,-0.9967811703681946,0,0,0,-1,-1,3542.123566166667,unknown,2,2026-04-24T18:34:45.265+02:00,2026-04-24T18:20:19.173+02:00,16,0.7102333,0,0,12.45568,0,0,2026-04-24T18:28:28.837+02:00,798741318.8894778,0,1.99,101.5412,1,0.85,0
2026-04-24T18:35:20.092+02:00,1777048513.800981,53.56897219751585,9.882953190205464,38.55946,-1,-1,-1,-1,9.519085617248134,5.63601519283635,-9999,3576.94627325,0.043792724609375,-0.073699951171875,-0.99151611328125,3576.94123625,-0.0007840332363332302,-0.002109874324360993,-0.00160514174762808,-0.03692000731825829,-0.02412114106118679,-0.001843594945967197,-0.0004755407571792603,0.005058199167251587,0.0004627704620361328,XArbitraryZVertical,-0.0008029838352758482,-0.001054621928986302,-0.0003911696037594966,0.9999990410089339,0.04474130272865295,-0.06600181758403778,-0.9968159198760986,0,0,0,-1,-1,3542.123566166667,unknown,2,2026-04-24T18:34:45.265+02:00,2026-04-24T18:20:19.173+02:00,16,0.7102333,0,0,12.45568,0,0,2026-04-24T18:28:28.837+02:00,798741318.8894778,0,1.99,101.5412,1,0.85,0
2026-04-24T18:35:20.105+02:00,1777048513.800981,53.56897219751585,9.882953190205464,38.55946,-1,-1,-1,-1,9.519085617248134,5.63601519283635,-9999,3576.95634825,0.0406951904296875,-0.074554443359375,-0.9864654541015625,3576.95131025,-0.0007325964378182008,-0.002364561067657633,-0.00206501582569126,-0.06152468547224998,-0.02590412646532059,0.01447612233459949,0.0002091303467750549,-0.003820605576038361,0.003144145011901855,XArbitraryZVertical,-0.001032940002561194,-0.001181901340146963,-0.0003650770450374302,0.9999987041981713,0.04448387771844864,-0.06554585695266724,-0.9968575239181519,0,0,0,-1,-1,3542.123566166667,unknown,2,2026-04-24T18:34:45.265+02:00,2026-04-24T18:20:19.173+02:00,16,0.7102333,0,0,12.45568,0,0,2026-04-24T18:28:28.837+02:00,798741318.8894778,0,1.99,101.5412,1,0.85,0
2026-04-24T18:35:20.112+02:00,1777048513.800981,53.56897219751585,9.882953190205464,38.55946,-1,-1,-1,-1,9.519085617248134,5.63601519283635,-9999,3576.96642225,0.0428466796875,-0.07586669921875,-0.98187255859375,3576.96138525,-0.0005813780517043219,-0.002614462001619999,-0.002728641513786865,-0.07263166457414627,-0.02234534546732903,0.005386488046497107,-0.002445846796035767,-0.01157034188508987,0.006662249565124512,XArbitraryZVertical,-0.00136469901895746,-0.001306832679328065,-0.0002889050030859167,0.9999982380224842,0.04422442987561226,-0.06489146500825882,-0.996911883354187,0,0,0,-1,-1,3542.123566166667,unknown,2,2026-04-24T18:34:45.265+02:00,2026-04-24T18:20:19.173+02:00,16,0.7102333,0,0,12.45568,0,0,2026-04-24T18:28:28.837+02:00,798741318.8894778,0,1.99,101.5412,1,0.85,0
2026-04-24T18:35:20.123+02:00,1777048513.800981,53.56897219751585,9.882953190205464,38.55946,-1,-1,-1,-1,9.519085617248134,5.63601519283635,-9999,3576.97649725,0.0388641357421875,-0.087799072265625,-0.9864349365234375,3576.97145925,-0.0005787068706759877,-0.002785550658728602,-0.003366892484387412,-0.07006800174713135,-0.02224574238061905,0.002778853522613645,-0.002290256321430206,-0.008422240614891052,0.01388263702392578,XArbitraryZVertical,-0.001683846560535661,-0.001392285582642444,-0.0002870080488948006,0.9999976828334922,0.0440535768866539,-0.06425537914037704,-0.9969606399536133,0,0,0,-1,-1,3542.123566166667,unknown,2,2026-04-24T18:34:45.265+02:00,2026-04-24T18:20:19.173+02:00,16,0.7102333,0,0,12.45568,0,0,2026-04-24T18:28:28.837+02:00,798741318.8894778,0,1.99,101.5412,1,0.85,0
2026-04-24T18:35:20.133+02:00,1777048513.800981,53.56897219751585,9.882953190205464,38.55946,-1,-1,-1,-1,9.519085617248134,5.63601519283635,-9999,3576.98657125,0.045623779296875,-0.06585693359375,-0.9828338623046875,3576.98153425,-0.000508185872069551,-0.002987472767858865,-0.003993122184929429,-0.06151046603918076,-0.02314908616244793,0.006002876441925764,-0.002373971045017242,-0.02063988894224167,0.01377898454666138,XArbitraryZVertical,-0.001996936871900149,-0.00149322538041403,-0.0002511097923209952,0.9999969344121605,0.04384737834334373,-0.06363441795110703,-0.9970095753669739,0,0,0,-1,-1,3542.123566166667,unknown,2,2026-04-24T18:34:45.265+02:00,2026-04-24T18:20:19.173+02:00,16,0.7102333,0,0,12.45568,0,0,2026-04-24T18:28:28.837+02:00,798741318.8894778,0,1.99,101.5412,1,0.85,0
2026-04-24T18:35:20.143+02:00,1777048513.800981,53.56897219751585,9.882953190205464,38.55946,-1,-1,-1,-1,9.519085617248134,5.63601519283635,-9999,3576.99664625,0.047637939453125,-0.05023193359375,-0.9835968017578125,3576.99160925,-0.0005194876579704056,-0.003170892134520785,-0.004507109308825239,-0.04599563777446747,-0.0220009982585907,-0.005253572948276997,-0.002893660217523575,-0.01628526300191879,0.01114928722381592,XArbitraryZVertical,-0.002253961629913752,-0.001584855965874732,-0.0002561699534222178,0.999996178811531,0.04366515949368477,-0.0631214901804924,-0.9970501661300659,0,0,0,-1,-1,3542.123566166667,unknown,2,2026-04-24T18:34:45.265+02:00,2026-04-24T18:20:19.173+02:00,16,0.7102333,0,0,12.45568,0,0,2026-04-24T18:28:28.837+02:00,798741318.8894778,0,1.99,101.5412,1,0.85,0
2026-04-24T18:35:20.153+02:00,1777048513.800981,53.56897219751585,9.882953190205464,38.55946,-1,-1,-1,-1,9.519085617248134,5.63601519283635,-9999,3577.00672125,0.0463104248046875,-0.0479888916015625,-0.9898834228515625,3577.00168325,-0.0005572955801562468,-0.003347667838260609,-0.004859616918687886,-0.02260136231780052,-0.02178048714995384,-0.004295900464057922,0.00445174053311348,0.00727207213640213,0.01558899879455566,XArbitraryZVertical,-0.002430268915020661,-0.001673151028427889,-0.0002745794768163509,0.9999956357062132,0.04349138960242271,-0.06276830285787582,-0.9970800280570984,0,0,0,-1,-1,3542.123566166667,unknown,2,2026-04-24T18:34:45.265+02:00,2026-04-24T18:20:19.173+02:00,16,0.7102333,0,0,12.45568,0,0,2026-04-24T18:28:28.837+02:00,798741318.8894778,0,1.99,101.5412,1,0.85,0
2026-04-24T18:35:20.164+02:00,1777048513.800981,53.56897219751585,9.882953190205464,38.55946,-1,-1,-1,-1,9.519085617248134,5.63601519283635,-9999,3577.01679525,0.046966552734375,-0.0488739013671875,-0.9923095703125,3577.01175825,-0.0006253126975587101,-0.003570283621019846,-0.005015685737792248,-0.004388962872326374,-0.02670600451529026,-0.01087597198784351,0.00422663614153862,0.01332362741231918,0.01014578342437744,XArbitraryZVertical,-0.002508394124139046,-0.00178435097726398,-0.0003081779987848562,0.999995266881436,0.04327398911118507,-0.06260953098535538,-0.9970995187759399,0,0,0,-1,-1,3542.123566166667,unknown,2,2026-04-24T18:34:45.265+02:00,2026-04-24T18:20:19.173+02:00,16,0.7102333,0,0,12.45568,0,0,2026-04-24T18:28:28.837+02:00,798741318.8894778,0,1.99,101.5412,1,0.85,0
2026-04-24T18:35:20.173+02:00,1777048513.800981,53.56897219751585,9.882953190205464,38.55946,-1,-1,-1,-1,9.519085617248134,5.63601519283635,-9999,3577.02687025,0.046417236328125,-0.0478668212890625,-0.9935760498046875,3577.02183225,-0.0007425240770520332,-0.003833492784154995,-0.005006575735942511,0.00583251565694809,-0.02956411056220531,-0.0110615948215127,0.003306232392787933,0.0144868865609169,0.006067216396331787,XArbitraryZVertical,-0.002503991940477907,-0.001915809589582412,-0.0003664620030322763,0.999995024387736,0.04301946982741356,-0.06261312216520309,-0.9971103072166443,0,0,0,-1,-1,3542.123566166667,unknown,2,2026-04-24T18:34:45.265+02:00,2026-04-24T18:20:19.173+02:00,16,0.7102333,0,0,12.45568,0,0,2026-04-24T18:28:28.837+02:00,798741318.8894778,0,1.99,101.5412,1,0.85,0
2026-04-24T18:35:20.183+02:00,1777048513.800981,53.56897219751585,9.882953190205464,38.55946,-1,-1,-1,-1,9.519085617248134,5.63601519283635,-9999,3577.03694425,0.044891357421875,-0.0476531982421875,-0.9941558837890625,3577.03190725,-0.0008562414101948616,-0.00412554037046566,-0.004825996100492527,0.02293565683066845,-0.02927435748279095,-0.01008035335689783,0.004367902874946594,0.01344088464975357,0.004664599895477295,XArbitraryZVertical,-0.002413873326063995,-0.002061729358214007,-0.0004231410593942348,0.9999949293064252,0.0427359975874424,-0.06278781592845917,-0.9971114993095398,0,0,0,-1,-1,3542.123566166667,unknown,2,2026-04-24T18:34:45.265+02:00,2026-04-24T18:20:19.173+02:00,16,0.7102333,0,0,12.45568,0,0,2026-04-24T18:28:28.837+02:00,798741318.8894778,0,1.99,101.5412,1,0.85,0
2026-04-24T18:35:20.193+02:00,1777048513.800981,53.56897219751585,9.882953190205464,38.55946,-1,-1,-1,-1,9.519085617248134,5.63601519283635,-9999,3577.04701925,0.0401611328125,-0.0550537109375,-0.9940032958984375,3577.04198225,-0.0009528993875497216,-0.004409786896503187,-0.004473725199375294,0.0313136912882328,-0.02936943061649799,-0.01158903352916241,0.002935715019702911,0.01586273312568665,0.002609848976135254,XArbitraryZVertical,-0.002237905480192768,-0.002203820067492753,-0.0004715152740859991,0.9999949921104512,0.04245919734239578,-0.06313446909189224,-0.9971014261245728,0,0,0,-1,-1,3542.123566166667,unknown,2,2026-04-24T18:34:45.265+02:00,2026-04-24T18:20:19.173+02:00,16,0.7102333,0,0,12.45568,0,0,2026-04-24T18:28:28.837+02:00,798741318.8894778,0,1.99,101.5412,1,0.85,0
2026-04-24T18:35:20.203+02:00,1777048513.800981,53.56897219751585,9.882953190205464,38.55946,-1,-1,-1,-1,9.519085617248134,5.63601519283635,-9999,3577.05709425,0.0397491455078125,-0.0601654052734375,-0.9932098388671875,3577.05205625,-0.001044005983620743,-0.004687288006097749,-0.004127808956677249,0.02805851213634014,-0.02638349682092667,-0.008690914139151573,0.0009478479623794556,0.01290740817785263,0.003316879272460938,XArbitraryZVertical,-0.002065120329434281,-0.002342559050650369,-0.0005171633445173422,0.9999950479904612,0.04218876361846924,-0.06347505003213882,-0.9970912933349609,0,0,0,-1,-1,3542.123566166667,unknown,2,2026-04-24T18:34:45.265+02:00,2026-04-24T18:20:19.173+02:00,16,0.7102333,0,0,12.45568,0,0,2026-04-24T18:28:28.837+02:00,798741318.8894778,0,1.99,101.5412,1,0.85,0
2026-04-24T18:35:20.213+02:00,1777048513.800981,53.56897219751585,9.882953190205464,38.55946,-1,-1,-1,-1,9.519085617248134,5.63601519283635,-9999,3577.06716825,0.0393524169921875,-0.0667724609375,-0.99273681640625,3577.06213125,-0.001133014915503284,-0.004933468987115467,-0.003797445533792201,0.01823517680168152,-0.02064891159534454,-0.0104089193046093,-0.002368099987506866,0.00584731251001358,0.003748714923858643,XArbitraryZVertical,-0.001900112899921748,-0.002465651429854856,-0.0005618210274627005,0.9999950310037299,0.04194941371679306,-0.06380020081996918,-0.9970806241035461,0,0,0,-1,-1,3542.123566166667,unknown,2,2026-04-24T18:34:45.265+02:00,2026-04-24T18:20:19.173+02:00,16,0.7102333,0,0,12.45568,0,0,2026-04-24T18:28:28.837+02:00,798741318.8894778,0,1.99,101.5412,1,0.85,0
2026-04-24T18:35:20.223+02:00,1777048513.800981,53.56897219751585,9.882953190205464,38.55946,-1,-1,-1,-1,9.519085617248134,5.63601519283635,-9999,3577.07724325,0.03790283203125,-0.0763397216796875,-0.9936676025390625,3577.07220525,-0.001206160717167721,-0.005123369410315316,-0.003573041247210796,0.0104830339550972,-0.01786377653479576,-0.004420802928507328,-0.002412650734186172,0.002298653125762939,0.004978299140930176,XArbitraryZVertical,-0.00178805833112196,-0.002560599862574255,-0.0005985008691246804,0.9999949735549152,0.04176508262753487,-0.06402046978473663,-0.9970742464065552,0,0,0,-1,-1,3542.123566166667,unknown,2,2026-04-24T18:34:45.265+02:00,2026-04-24T18:20:19.173+02:00,16,0.7102333,0,0,12.45568,0,0,2026-04-24T18:28:28.837+02:00,798741318.8894778,0,1.99,101.5412,1,0.85,0
2026-04-24T18:35:20.233+02:00,1777048513.800981,53.56897219751585,9.882953190205464,38.55946,-1,-1,-1,-1,9.519085617248134,5.63601519283635,-9999,3577.08731725,0.038543701171875,-0.070526123046875,-0.9958648681640625,3577.08228025,-0.001253311428532997,-0.00526960604080417,-0.003590370164434521,-0.007285044062882662,-0.01436544861644506,-0.003541693557053804,-0.00393323227763176,-0.008905515074729919,0.003902137279510498,XArbitraryZVertical,-0.001796828553512585,-0.002633670118326471,-0.0006219225074113667,0.9999947744308412,0.04162245616316795,-0.06400099396705627,-0.997081458568573,0,0,0,-1,-1,3542.123566166667,unknown,2,2026-04-24T18:34:45.265+02:00,2026-04-24T18:20:19.173+02:00,16,0.7102333,0,0,12.45568,0,0,2026-04-24T18:28:28.837+02:00,798741318.8894778,0,1.99,101.5412,1,0.85,0
2026-04-24T18:35:20.244+02:00,1777048513.800981,53.56897219751585,9.882953190205464,38.55946,-1,-1,-1,-1,9.519085617248134,5.63601519283635,-9999,3577.09739225,0.0406036376953125,-0.0663299560546875,-0.9942169189453125,3577.09235525,-0.001296856836346636,-0.005385736190093234,-0.003758787955838557,-0.01194280665367842,-0.0163031630218029,-0.002483752323314548,-0.002828501164913177,-0.01154737174510956,0.00213247537612915,XArbitraryZVertical,-0.001881131721786096,-0.002691640775322733,-0.0006433639039903306,0.9999944369418239,0.04150955006480217,-0.06383106112480164,-0.9970970749855042,0,0,0,-1,-1,3542.123566166667,unknown,2,2026-04-24T18:34:45.265+02:00,2026-04-24T18:20:19.173+02:00,16,0.7102333,0,0,12.45568,0,0,2026-04-24T18:28:28.837+02:00,798741318.8894778,0,1.99,101.5412,1,0.85,0
2026-04-24T18:35:20.254+02:00,1777048513.800981,53.56897219751585,9.882953190205464,38.55946,-1,-1,-1,-1,9.519085617248134,5.63601519283635,-9999,3577.10746725,0.0415496826171875,-0.06878662109375,-0.9952392578125,3577.10242925,-0.001310853820998399,-0.005524679368150037,-0.003968132804832377,-0.01762146502733231,-0.01894102618098259,-0.001308232895098627,-0.001927893608808517,-0.004188358783721924,0.002212584018707275,XArbitraryZVertical,-0.001985867592111452,-0.002761029710520978,-0.000649942413354987,0.9999940145782202,0.04137187823653221,-0.06362170726060867,-0.9971161484718323,0,0,0,-1,-1,3542.123566166667,unknown,2,2026-04-24T18:34:45.265+02:00,2026-04-24T18:20:19.173+02:00,16,0.7102333,0,0,12.45568,0,0,2026-04-24T18:28:28.837+02:00,798741318.8894778,0,1.99,101.5412,1,0.85,0
2026-04-24T18:35:20.264+02:00,1777048513.800981,53.56897219751585,9.882953190205464,38.55946,-1,-1,-1,-1,9.519085617248134,5.63601519283635,-9999,3577.11754125,0.04400634765625,-0.0649871826171875,-0.996307373046875,3577.11250425,-0.001342012921936169,-0.005714415766979404,-0.004234731352109139,-0.02419968508183956,-0.02631132304668427,-0.002377425553277135,0.0002887099981307983,-0.004013083875179291,0.003519117832183838,XArbitraryZVertical,-0.002119272188882743,-0.002855776210921603,-0.000664952432809892,0.9999934477888713,0.04118469730019569,-0.06335447728633881,-0.9971409440040588,0,0,0,-1,-1,3542.123566166667,unknown,2,2026-04-24T18:34:45.265+02:00,2026-04-24T18:20:19.173+02:00,16,0.7102333,0,0,12.45568,0,0,2026-04-24T18:28:28.837+02:00,798741318.8894778,0,1.99,101.5412,1,0.85,0
2026-04-24T18:35:20.274+02:00,1777048513.800981,53.56897219751585,9.882953190205464,38.55946,-1,-1,-1,-1,9.519085617248134,5.63601519283635,-9999,3577.12761625,0.04486083984375,-0.05743408203125,-0.9939727783203125,3577.12257825,-0.001391709917740061,-0.005967250306674617,-0.00453704748309001,-0.02537653595209122,-0.02733450941741467,-0.008589249104261398,0.002307593822479248,-0.0048050656914711,0.001351356506347656,XArbitraryZVertical,-0.002270587270722002,-0.002982033719159041,-0.0006890815959395288,0.9999927562943489,0.04093582928180695,-0.063050776720047,-0.9971704483032227,0,0,0,-1,-1,3542.123566166667,unknown,2,2026-04-24T18:34:45.265+02:00,2026-04-24T18:20:19.173+02:00,16,0.7102333,0,0,12.45568,0,0,2026-04-24T18:28:28.837+02:00,798741318.8894778,0,1.99,101.5412,1,0.85,0
2026-04-24T18:35:20.284+02:00,1777048513.800981,53.56897219751585,9.882953190205464,38.55946,-1,-1,-1,-1,9.519085617248134,5.63601519283635,-9999,3577.13769025,0.0452880859375,-0.059295654296875,-0.992218017578125,3577.13265325,-0.001494213671334713,-0.006240574487888453,-0.004797913396047751,-0.02022619545459747,-0.02925065159797668,-0.01004639826714993,0.004312813282012939,0.001582905650138855,0.001745164394378662,XArbitraryZVertical,-0.002401273039130791,-0.003118479822441268,-0.0007396155104199096,0.9999920587801608,0.04067010805010796,-0.06278591603040695,-0.9971979856491089,0,0,0,-1,-1,3542.123566166667,unknown,2,2026-04-24T18:34:45.265+02:00,2026-04-24T18:20:19.173+02:00,16,0.7102333,0,0,12.45568,0,0,2026-04-24T18:28:28.837+02:00,798741318.8894778,0,1.99,101.5412,1,0.85,0
2026-04-24T18:35:20.294+02:00,1777048513.800981,53.56897219751585,9.882953190205464,38.55946,-1,-1,-1,-1,9.519085617248134,5.63601519283635,-9999,3577.14776525,0.0413055419921875,-0.0636444091796875,-0.99151611328125,3577.14272825,-0.00163506197292196,-0.006523546045889238,-0.004956472996968043,-0.006875502876937389,-0.0259304903447628,-0.01581081002950668,0.004905983805656433,0.005553349852561951,0.004223227500915527,XArbitraryZVertical,-0.002480886397204657,-0.003259729926809274,-0.0008094405715139045,0.9999913385645007,0.04039737582206726,-0.06262123584747314,-0.997219443321228,0,0,0,-1,-1,3542.123566166667,unknown,2,2026-04-24T18:34:45.265+02:00,2026-04-24T18:20:19.173+02:00,16,0.7102333,0,0,12.45568,0,0,2026-04-24T18:28:28.837+02:00,798741318.8894778,0,1.99,101.5412,1,0.85,0
2026-04-24T18:35:20.304+02:00,1777048513.800981,53.56897219751585,9.882953190205464,38.55946,-1,-1,-1,-1,9.519085617248134,5.63601519283635,-9999,3577.15784025,0.0367431640625,-0.0585479736328125,-0.9901580810546875,3577.15280225,-0.001757761170296569,-0.006765248630408424,-0.005014882837115144,-0.004020008724182844,-0.02211204916238785,-0.01275509782135487,0.00320088118314743,-8.008629083633423e-05,0.005121707916259766,XArbitraryZVertical,-0.002510396307342316,-0.003380402093949411,-0.0008703909507407636,0.999990787374659,0.04016460478305817,-0.06255724281072617,-0.9972328543663025,0,0,0,-1,-1,3542.123566166667,unknown,2,2026-04-24T18:34:45.265+02:00,2026-04-24T18:20:19.173+02:00,16,0.7102333,0,0,12.45568,0,0,2026-04-24T18:28:28.837+02:00,798741318.8894778,0,1.99,101.5412,1,0.85,0
2026-04-24T18:35:20.314+02:00,1777048513.800981,53.56897219751585,9.882953190205464,38.55946,-1,-1,-1,-1,9.519085617248134,5.63601519283635,-9999,3577.16791425,0.034820556640625,-0.0543670654296875,-0.991241455078125,3577.16287725,-0.001854821681979966,-0.006951057029823784,-0.004963772396451874,0.006058191880583763,-0.01447996404021978,-0.00802665576338768,-0.0008928552269935608,-0.0003388673067092896,0.006575524806976318,XArbitraryZVertical,-0.002485090743428532,-0.003473207502067408,-0.0009187763867864937,0.9999904888658399,0.03998589143157005,-0.06260364502668381,-0.9972371459007263,0,0,0,-1,-1,3542.123566166667,unknown,2,2026-04-24T18:34:45.265+02:00,2026-04-24T18:20:19.173+02:00,16,0.7102333,0,0,12.45568,0,0,2026-04-24T18:28:28.837+02:00,798741318.8894778,0,1.99,101.5412,1,0.85,0
2026-04-24T18:35:20.324+02:00,1777048513.800981,53.56897219751585,9.882953190205464,38.55946,-1,-1,-1,-1,9.519085617248134,5.63601519283635,-9999,3577.17798925,0.033721923828125,-0.0555419921875,-0.99493408203125,3577.17295125,-0.00191664984030884,-0.007106883884868863,-0.004849496196291999,0.004754255060106516,-0.01350524835288525,-0.003469521412625909,-0.004296988248825073,0.007462590932846069,0.007642745971679688,XArbitraryZVertical,-0.002428134570174986,-0.003551098613703554,-0.0009496997102811752,0.9999903223068732,0.03983471915125847,-0.06271467357873917,-0.9972361922264099,0,0,0,-1,-1,3542.123566166667,unknown,2,2026-04-24T18:34:45.265+02:00,2026-04-24T18:20:19.173+02:00,16,0.7102333,0,0,12.45568,0,0,2026-04-24T18:28:28.837+02:00,798741318.8894778,0,1.99,101.5412,1,0.85,0
2026-04-24T18:35:20.334+02:00,1777048513.800981,53.56897219751585,9.882953190205464,38.55946,-1,-1,-1,-1,9.519085617248134,5.63601519283635,-9999,3577.18806325,0.032318115234375,-0.0584716796875,-0.995269775390625,3577.18302625,-0.001942470209818732,-0.007202409779622964,-0.004794709716946709,0.002676989417523146,-0.007301945704966784,-0.001238325028680265,-0.005149539560079575,0.008767217397689819,0.00376737117767334,XArbitraryZVertical,-0.002400833398420824,-0.003598856552769608,-0.0009625924945591972,0.9999902145680839,0.03974122926592827,-0.06276807934045792,-0.9972366094589233,0,0,0,-1,-1,3542.123566166667,unknown,2,2026-04-24T18:34:45.265+02:00,2026-04-24T18:20:19.173+02:00,16,0.7102333,0,0,12.45568,0,0,2026-04-24T18:28:28.837+02:00,798741318.8894778,0,1.99,101.5412,1,0.85,0
2026-04-24T18:35:20.344+02:00,1777048513.800981,53.56897219751585,9.882953190205464,38.55946,-1,-1,-1,-1,9.519085617248134,5.63601519283635,-9999,3577.19813825,0.0348663330078125,-0.060546875,-0.9959716796875,3577.19310125,-0.001939676711840371,-0.007262970227764836,-0.004746098769773759,0.002253387123346329,-0.00579140055924654,0.0009009921923279762,-0.007255725562572479,0.00524524599313736,0.002408683300018311,XArbitraryZVertical,-0.002376552266601319,-0.003629163646912088,-0.0009612113908602535,0.9999901549524909,0.03968066722154617,-0.06281667202711105,-0.9972359538078308,0,0,0,-1,-1,3542.123566166667,unknown,2,2026-04-24T18:34:45.265+02:00,2026-04-24T18:20:19.173+02:00,16,0.7102333,0,0,12.45568,0,0,2026-04-24T18:28:28.837+02:00,798741318.8894778,0,1.99,101.5412,1,0.85,0
2026-04-24T18:35:20.354+02:00,1777048513.800981,53.56897219751585,9.882953190205464,38.55946,-1,-1,-1,-1,9.519085617248134,5.63601519283635,-9999,3577.20821325,0.0379486083984375,-0.0591583251953125,-0.9973602294921875,3577.20317525,-0.001930313084599124,-0.007303312140245925,-0.004732193393473958,-0.003792255185544491,-0.006020432338118553,0.001239746226929128,-0.006162017583847046,0.002680815756320953,0.001173436641693115,XArbitraryZVertical,-0.002369601844607868,-0.003649352137760194,-0.0009565070491863848,0.9999901469769815,0.03963981568813324,-0.06283097714185715,-0.9972366690635681,0,0,0,-1,-1,3542.123566166667,unknown,2,2026-04-24T18:34:45.265+02:00,2026-04-24T18:20:19.173+02:00,16,0.7102333,0,0,12.45568,0,0,2026-04-24T18:28:28.837+02:00,798741318.8894778,0,1.99,101.5412,1,0.85,0
2026-04-24T18:35:20.364+02:00,1777048513.800981,53.56897219751585,9.882953190205464,38.55946,-1,-1,-1,-1,9.519085617248134,5.63601519283635,-9999,3577.21828725,0.040557861328125,-0.0608367919921875,-0.9940338134765625,3577.21325025,-0.001941112935137252,-0.007348531455332065,-0.004786829298814683,-0.005126126110553741,-0.008537651970982552,-0.00461394852027297,-0.002501294016838074,0.002198599278926849,0.0007209181785583496,XArbitraryZVertical,-0.00239696095056482,-0.003671921983884396,-0.0009617528985822896,0.9999900040589467,0.03959542512893677,-0.06277600675821304,-0.9972419142723083,0,0,0,-1,-1,3542.123566166667,unknown,2,2026-04-24T18:34:45.265+02:00,2026-04-24T18:20:19.173+02:00,16,0.7102333,0,0,12.45568,0,0,2026-04-24T18:28:28.837+02:00,798741318.8894778,0,1.99,101.5412,1,0.85,0
2026-04-24T18:35:20.374+02:00,1777048513.800981,53.56897219751585,9.882953190205464,38.55946,-1,-1,-1,-1,9.519085617248134,5.63601519283635,-9999,3577.22836225,0.040924072265625,-0.0628662109375,-0.9905548095703125,3577.22332425,-0.001987825254428468,-0.007414172086855153,-0.004836883879367203,-0.0004224508302286267,-0.01108549907803535,-0.004691712558269501,-0.0005773864686489105,0.002604261040687561,0.001550614833831787,XArbitraryZVertical,-0.00242210628906991,-0.00370466120921675,-0.0009849373965829156,0.9999897113943375,0.0395330898463726,-0.06272389739751816,-0.9972476363182068,0,0,0,-1,-1,3542.123566166667,unknown,2,2026-04-24T18:34:45.265+02:00,2026-04-24T18:20:19.173+02:00,16,0.7102333,0,0,12.45568,0,0,2026-04-24T18:28:28.837+02:00,798741318.8894778,0,1.99,101.5412,1,0.85,0
2026-04-24T18:35:20.384+02:00,1777048513.800981,53.56897219751585,9.882953190205464,38.55946,-1,-1,-1,-1,9.519085617248134,5.63601519283635,-9999,3577.23843625,0.038818359375,-0.063262939453125,-0.988067626953125,3577.23339925,-0.002051880091207672,-0.00749029349243698,-0.004842388955305976,-0.0002284661750309169,-0.01014806516468525,-0.005309366621077061,0.001737236976623535,0.0005816146731376648,0.006360530853271484,XArbitraryZVertical,-0.002425016014827223,-0.003742640881249249,-0.001016861921241254,0.9999895874959666,0.03946150839328766,-0.06271541118621826,-0.997251033782959,0,0,0,-1,-1,3542.123566166667,unknown,2,2026-04-24T18:34:45.265+02:00,2026-04-24T18:20:19.173+02:00,16,0.7102333,0,0,12.45568,0,0,2026-04-24T18:28:28.837+02:00,798741318.8894778,0,1.99,101.5412,1,0.85,0
2026-04-24T18:35:20.395+02:00,1777048513.800981,53.56897219751585,9.882953190205464,38.55946,-1,-1,-1,-1,9.519085617248134,5.63601519283635,-9999,3577.24851125,0.0344085693359375,-0.0634613037109375,-0.9821319580078125,3577.24347425,-0.00209508038767264,-0.007544014489859636,-0.004834135276713172,0.001422427361831069,-0.0007721409201622009,-0.002253122860565782,0.001024950295686722,-0.0009075477719306946,0.00764387845993042,XArbitraryZVertical,-0.002420997920061726,-0.003769453023397476,-0.001038412265450993,0.999989488028403,0.03941085562109947,-0.0627216175198555,-0.9972526431083679,0,0,0,-1,-1,3542.123566166667,unknown,2,2026-04-24T18:34:45.265+02:00,2026-04-24T18:20:19.173+02:00,16,0.7102333,0,0,12.45568,0,0,2026-04-24T18:28:28.837+02:00,798741318.8894778,0,1.99,101.5412,1,0.85,0
2026-04-24T18:35:20.405+02:00,1777048513.800981,53.56897219751585,9.882953190205464,38.55946,-1,-1,-1,-1,9.519085617248134,5.63601519283635,-9999,3577.25858625,0.0316009521484375,-0.0686798095703125,-0.98736572265625,3577.25354825,-0.002146283843124148,-0.007520688100524434,-0.004858048438696588,0.005469739902764559,0.01123019307851791,-0.007368522230535746,-0.00319792702794075,0.0001343265175819397,0.01350384950637817,XArbitraryZVertical,-0.00243303848674973,-0.003757715059687577,-0.001063996974747827,0.9999894681676097,0.03943756595253944,-0.06269536912441254,-0.9972532391548157,0,0,0,-1,-1,3542.123566166667,unknown,2,2026-04-24T18:34:45.265+02:00,2026-04-24T18:20:19.173+02:00,16,0.7102333,0,0,12.45568,0,0,2026-04-24T18:28:28.837+02:00,798741318.8894778,0,1.99,101.5412,1,0.85,0
2026-04-24T18:35:20.415+02:00,1777048513.800981,53.56897219751585,9.882953190205464,38.55946,-1,-1,-1,-1,9.519085617248134,5.63601519283635,-9999,3577.26866025,0.0318603515625,-0.0641632080078125,-0.9895172119140625,3577.26362325,-0.002175002283579666,-0.007428224726175978,-0.00485369618975515,0.008193620480597019,0.01320119854062796,-0.001766829285770655,-0.006374355405569077,-0.003051772713661194,0.0133015513420105,XArbitraryZVertical,-0.002430866499738392,-0.003711451331373857,-0.001078476620958627,0.9999896250486096,0.03953171521425247,-0.0626983642578125,-0.9972493052482605,0,0,0,-1,-1,3542.123566166667,unknown,2,2026-04-24T18:34:45.265+02:00,2026-04-24T18:20:19.173+02:00,16,0.7102333,0,0,12.45568,0,0,2026-04-24T18:28:28.837+02:00,798741318.8894778,0,1.99,101.5412,1,0.85,0
2026-04-24T18:35:20.425+02:00,1777048513.800981,53.56897219751585,9.882953190205464,38.55946,-1,-1,-1,-1,9.519085617248134,5.63601519283635,-9999,3577.27873525,0.0360260009765625,-0.056793212890625,-0.9930419921875,3577.27369725,-0.002162103446468502,-0.007336601466205051,-0.004825189913386454,0.003017554292455316,0.01418257318437099,0.005123300943523645,-0.009470842778682709,-0.004746995866298676,0.009695053100585938,XArbitraryZVertical,-0.002416540544950455,-0.003665671520974748,-0.001072190989355573,0.9999897994145697,0.0396222248673439,-0.06272738426923752,-0.9972438812255859,0,0,0,-1,-1,3542.123566166667,unknown,2,2026-04-24T18:34:45.265+02:00,2026-04-24T18:20:19.173+02:00,16,0.7102333,0,0,12.45568,0,0,2026-04-24T18:28:28.837+02:00,798741318.8894778,0,1.99,101.5412,1,0.85,0
2026-04-24T18:35:20.435+02:00,1777048513.800981,53.56897219751585,9.882953190205464,38.55946,-1,-1,-1,-1,9.519085617248134,5.63601519283635,-9999,3577.28880925,0.0362396240234375,-0.0571746826171875,-0.99176025390625,3577.28377225,-0.00211907029231619,-0.007215544324017879,-0.004775006062564539,0.009009134024381638,0.01629472523927689,0.004955521784722805,-0.006185978651046753,0.002476692199707031,0.005262076854705811,XArbitraryZVertical,-0.002391306353696858,-0.003605222294587738,-0.001050911466026993,0.9999901201531514,0.03974006697535515,-0.06277943402528763,-0.997235894203186,0,0,0,-1,-1,3542.123566166667,unknown,2,2026-04-24T18:34:45.265+02:00,2026-04-24T18:20:19.173+02:00,16,0.7102333,0,0,12.45568,0,0,2026-04-24T18:28:28.837+02:00,798741318.8894778,0,1.99,101.5412,1,0.85,0
2026-04-24T18:35:20.445+02:00,1777048513.800981,53.56897219751585,9.882953190205464,38.55946,-1,-1,-1,-1,9.519085617248134,5.63601519283635,-9999,3577.29888425,0.0371856689453125,-0.059783935546875,-0.9949798583984375,3577.29384725,-0.002048603802501722,-0.007060646331685187,-0.004700316610201876,0.01110552158206701,0.01805720664560795,0.009431229904294014,-0.004230000078678131,0.007757693529129028,0.004427194595336914,XArbitraryZVertical,-0.002353756359842037,-0.003527896973769777,-0.001015995720310654,0.9999904917220243,0.03988980874419212,-0.06285719573497772,-0.9972250461578369,0,0,0,-1,-1,3542.123566166667,unknown,2,2026-04-24T18:34:45.265+02:00,2026-04-24T18:20:19.173+02:00,16,0.7102333,0,0,12.45568,0,0,2026-04-24T18:28:28.837+02:00,798741318.8894778,0,1.99,101.5412,1,0.85,0
2026-04-24T18:35:20.455+02:00,1777048513.800981,53.56897219751585,9.882953190205464,38.55946,-1,-1,-1,-1,9.519085617248134,5.63601519283635,-9999,3577.30895925,0.0379791259765625,-0.0564727783203125,-0.9970245361328125,3577.30392125,-0.001933029775205662,-0.00685964251300192,-0.004573278147393355,0.01931018754839897,0.02241786569356918,0.01186802238225937,-0.003232508897781372,0.0036935955286026,0.003663480281829834,XArbitraryZVertical,-0.002289937616563266,-0.003427594050243082,-0.0009586638272658705,0.9999910027147058,0.04008249565958977,-0.0629892572760582,-0.9972089529037476,0,0,0,-1,-1,3542.123566166667,unknown,2,2026-04-24T18:34:45.265+02:00,2026-04-24T18:20:19.173+02:00,16,0.7102333,0,0,12.45568,0,0,2026-04-24T18:28:28.837+02:00,798741318.8894778,0,1.99,101.5412,1,0.85,0
2026-04-24T18:35:20.465+02:00,1777048513.800981,53.56897219751585,9.882953190205464,38.55946,-1,-1,-1,-1,9.519085617248134,5.63601519283635,-9999,3577.31903325,0.0403900146484375,-0.0527496337890625,-0.994903564453125,3577.31399625,-0.001823768403158175,-0.006625792082541069,-0.004317826747432935,0.03387064859271049,0.02106311544775963,0.007385788951069117,-0.002970155328512192,0.004380635917186737,0.0008302927017211914,XArbitraryZVertical,-0.002161919793232402,-0.003310912029254048,-0.0009047246615242357,0.9999918294497762,0.04030842706561089,-0.06324905902147293,-0.9971834421157837,0,0,0,-1,-1,3542.123566166667,unknown,2,2026-04-24T18:34:45.265+02:00,2026-04-24T18:20:19.173+02:00,16,0.7102333,0,0,12.45568,0,0,2026-04-24T18:28:28.837+02:00,798741318.8894778,0,1.99,101.5412,1,0.85,0
2026-04-24T18:35:20.475+02:00,1777048513.800981,53.56897219751585,9.882953190205464,38.55946,-1,-1,-1,-1,9.519085617248134,5.63601519283635,-9999,3577.32910825,0.041778564453125,-0.051239013671875,-0.992401123046875,3577.32407125,-0.001729808347683674,-0.006428828461616689,-0.003917055125954074,0.04614648967981339,0.02006256580352783,0.007989794015884399,-0.001924425363540649,0.009545318782329559,0.0002018213272094727,XArbitraryZVertical,-0.001961295441291781,-0.003212707124253128,-0.0008586023647135189,0.9999926330512386,0.04049865528941154,-0.06365299224853516,-0.9971500039100647,0,0,0,-1,-1,3542.123566166667,unknown,2,2026-04-24T18:34:45.265+02:00,2026-04-24T18:20:19.173+02:00,16,0.7102333,0,0,12.45568,0,0,2026-04-24T18:28:28.837+02:00,798741318.8894778,0,1.99,101.5412,1,0.85,0
2026-04-24T18:35:20.485+02:00,1777048513.800981,53.56897219751585,9.882953190205464,38.55946,-1,-1,-1,-1,9.519085617248134,5.63601519283635,-9999,3577.33918225,0.042144775390625,-0.05572509765625,-0.9925689697265625,3577.33414525,-0.001653036013518568,-0.006268809395342001,-0.00342334805771376,0.05492847785353661,0.02100825496017933,0.005891223438084126,0.001155868172645569,0.01294024288654327,0.004466712474822998,XArbitraryZVertical,-0.001714254689238065,-0.003132978918296348,-0.0008211475077983585,0.999993369817101,0.04065322875976562,-0.06414874643087387,-0.997111976146698,0,0,0,-1,-1,3542.123566166667,unknown,2,2026-04-24T18:34:45.265+02:00,2026-04-24T18:20:19.173+02:00,16,0.7102333,0,0,12.45568,0,0,2026-04-24T18:28:28.837+02:00,798741318.8894778,0,1.99,101.5412,1,0.85,0
2026-04-24T18:35:20.495+02:00,1777048513.800981,53.56897219751585,9.882953190205464,38.55946,-1,-1,-1,-1,9.519085617248134,5.63601519283635,-9999,3577.34925725,0.03955078125,-0.063018798828125,-0.9884490966796875,3577.34422025,-0.001618798550066042,-0.00610213016686275,-0.002825594890312671,0.06013069674372673,0.02415744215250015,0.003532195230945945,0.001373212784528732,0.0118439793586731,0.003582179546356201,XArbitraryZVertical,-0.001415259312386464,-0.003049912477534177,-0.0008050840014264449,0.9999941272619255,0.04081735014915466,-0.06474620848894119,-0.9970666170120239,0,0,0,-1,-1,3542.123566166667,unknown,2,2026-04-24T18:34:45.265+02:00,2026-04-24T18:20:19.173+02:00,16,0.7102333,0,0,12.45568,0,0,2026-04-24T18:28:28.837+02:00,798741318.8894778,0,1.99,101.5412,1,0.85,0
2026-04-24T18:35:20.506+02:00,1777048513.800981,53.56897219751585,9.882953190205464,38.55946,-1,-1,-1,-1,9.519085617248134,5.63601519283635,-9999,3577.35933225,0.03533935546875,-0.0631561279296875,-0.990570068359375,3577.35429425,-0.001559298118294034,-0.005875344834586953,-0.002231068483567169,0.0537741556763649,0.03448118641972542,0.006068989634513855,0.0003269240260124207,0.005939118564128876,0.006662249565124512,XArbitraryZVertical,-0.001117819184058069,-0.00293679569146265,-0.0007763680477436103,0.9999947814491649,0.04103966802358627,-0.06534159928560257,-0.9970186948776245,0,0,0,-1,-1,3542.123566166667,unknown,2,2026-04-24T18:34:45.265+02:00,2026-04-24T18:20:19.173+02:00,16,0.7102333,0,0,12.45568,0,0,2026-04-24T18:28:28.837+02:00,798741318.8894778,0,1.99,101.5412,1,0.85,0
2026-04-24T18:35:20.516+02:00,1777048513.800981,53.56897219751585,9.882953190205464,38.55946,-1,-1,-1,-1,9.519085617248134,5.63601519283635,-9999,3577.36940625,0.0362548828125,-0.066009521484375,-0.9917144775390625,3577.36436925,-0.001482123796145351,-0.005554543686648383,-0.001742006465555718,0.05070619285106659,0.03964505717158318,0.006863410584628582,-0.0034363754093647,0.002295084297657013,0.008188545703887939,XArbitraryZVertical,-0.0008730575965814032,-0.002776620819821449,-0.0007386396368817031,0.9999955534069833,0.0413544774055481,-0.06583268940448761,-0.9969733357429504,0,0,0,-1,-1,3542.123566166667,unknown,2,2026-04-24T18:34:45.265+02:00,2026-04-24T18:20:19.173+02:00,16,0.7102333,0,0,12.45568,0,0,2026-04-24T18:28:28.837+02:00,798741318.8894778,0,1.99,101.5412,1,0.85,0
2026-04-24T18:35:20.526+02:00,1777048513.800981,53.56897219751585,9.882953190205464,38.55946,-1,-1,-1,-1,9.519085617248134,5.63601519283635,-9999,3577.37948125,0.0387115478515625,-0.07110595703125,-0.9941558837890625,3577.37444425,-0.001388319760999482,-0.005171509347277325,-0.001315861957784682,0.04745649918913841,0.04144322499632835,0.01118272542953491,-0.006390787661075592,0.002708971500396729,0.004436612129211426,XArbitraryZVertical,-0.0006597234281058652,-0.002585293629428418,-0.0006924560355788149,0.9999963061745627,0.04173016175627708,-0.06626184284687042,-0.9969292879104614,0,0,0,-1,-1,3542.123566166667,unknown,2,2026-04-24T18:34:45.265+02:00,2026-04-24T18:20:19.173+02:00,16,0.7102333,0,0,12.45568,0,0,2026-04-24T18:28:28.837+02:00,798741318.8894778,0,1.99,101.5412,1,0.85,0
2026-04-24T18:35:20.536+02:00,1777048513.800981,53.56897219751585,9.882953190205464,38.55946,-1,-1,-1,-1,9.519085617248134,5.63601519283635,-9999,3577.38955525,0.04534912109375,-0.0687103271484375,-0.99908447265625,3577.38451825,-0.001272364007516889,-0.004813342467477885,-0.0009274136881384809,0.03600810095667839,0.03441034629940987,0.01174438558518887,-0.005595732480287552,-0.002864614129066467,0.004731476306915283,XArbitraryZVertical,-0.0004652364533088309,-0.00240637307847724,-0.0006350640390636753,0.9999968302033434,0.04207950830459595,-0.06665442883968353,-0.9968883991241455,0,0,0,-1,-1,3542.123566166667,unknown,2,2026-04-24T18:34:45.265+02:00,2026-04-24T18:20:19.173+02:00,16,0.7102333,0,0,12.45568,0,0,2026-04-24T18:28:28.837+02:00,798741318.8894778,0,1.99,101.5412,1,0.85,0
2026-04-24T18:35:20.546+02:00,1777048513.800981,53.56897219751585,9.882953190205464,38.55946,-1,-1,-1,-1,9.519085617248134,5.63601519283635,-9999,3577.39963025,0.0496826171875,-0.067901611328125,-0.998779296875,3577.39459325,-0.001158082134893442,-0.004539131597148244,-0.0006715538981107087,0.02026700787246227,0.02657799050211906,0.008960782550275326,-0.0001393929123878479,-0.003763929009437561,-0.0007293820381164551,XArbitraryZVertical,-0.0003370901775884539,-0.002269368816035764,-0.0005782774192571515,0.9999972439742978,0.04234521836042404,-0.06691479682922363,-0.9968597292900085,0,0,0,-1,-1,3542.123566166667,unknown,2,2026-04-24T18:34:45.265+02:00,2026-04-24T18:20:19.173+02:00,16,0.7102333,0,0,12.45568,0,0,2026-04-24T18:28:28.837+02:00,798741318.8894778,0,1.99,101.5412,1,0.85,0
2026-04-24T18:35:20.556+02:00,1777048513.800981,53.56897219751585,9.882953190205464,38.55946,-1,-1,-1,-1,9.519085617248134,5.63601519283635,-9999,3577.40970525,0.05169677734375,-0.0703125,-0.99688720703125,3577.40466725,-0.00105084671994856,-0.004345975898045373,-0.0005463825408141406,0.01413561310619116,0.01544491201639175,0.01215364690870047,0.004848003387451172,-0.0005824044346809387,-0.002195596694946289,XArbitraryZVertical,-0.0002743323217330748,-0.00217284231547952,-0.0005248284345127449,0.9999974647976873,0.04253055155277252,-0.06704456359148026,-0.9968430995941162,0,0,0,-1,-1,3542.123566166667,unknown,2,2026-04-24T18:34:45.265+02:00,2026-04-24T18:20:19.173+02:00,16,0.7102333,0,0,12.45568,0,0,2026-04-24T18:28:28.837+02:00,798741318.8894778,0,1.99,101.5412,1,0.85,0
2026-04-24T18:35:20.566+02:00,1777048513.800981,53.56897219751585,9.882953190205464,38.55946,-1,-1,-1,-1,9.519085617248134,5.63601519283635,-9999,3577.41977925,0.05255126953125,-0.0724945068359375,-0.9918670654296875,3577.41474225,-0.0009621566668777631,-0.004254916585005116,-0.0004924369433264182,0.008972914889454842,0.003221268765628338,0.004959915764629841,0.00779971107840538,-0.001623116433620453,-0.001348614692687988,XArbitraryZVertical,-0.0002472413578952,-0.002127337936843174,-0.000480553394776379,0.9999975865053533,0.04261534288525581,-0.06710248440504074,-0.9968355894088745,0,0,0,-1,-1,3542.123566166667,unknown,2,2026-04-24T18:34:45.265+02:00,2026-04-24T18:20:19.173+02:00,16,0.7102333,0,0,12.45568,0,0,2026-04-24T18:28:28.837+02:00,798741318.8894778,0,1.99,101.5412,1,0.85,0
2026-04-24T18:35:20.576+02:00,1777048513.800981,53.56897219751585,9.882953190205464,38.55946,-1,-1,-1,-1,9.519085617248134,5.63601519283635,-9999,3577.42985425,0.0504913330078125,-0.07122802734375,-0.9856414794921875,3577.42481725,-0.0009319367979316333,-0.004251416381581336,-0.0004951754770779921,0.005299883428961039,-0.004263811279088259,0.001567048602737486,0.00921732559800148,-0.004157371819019318,0.002313554286956787,XArbitraryZVertical,-0.0002485776589058717,-0.002125590901791602,-0.0004654410108965674,0.999997613193278,0.04261679202318192,-0.06710117310285568,-0.9968355894088745,0,0,0,-1,-1,3542.123566166667,unknown,2,2026-04-24T18:34:45.265+02:00,2026-04-24T18:20:19.173+02:00,16,0.7102333,0,0,12.45568,0,0,2026-04-24T18:28:28.837+02:00,798741318.8894778,0,1.99,101.5412,1,0.85,0
2026-04-24T18:35:20.586+02:00,1777048513.800981,53.56897219751585,9.882953190205464,38.55946,-1,-1,-1,-1,9.519085617248134,5.63601519283635,-9999,3577.43992825,0.042999267578125,-0.0704803466796875,-0.9818267822265625,3577.43489125,-0.0008988185519152611,-0.004287923079669289,-0.0003715775270744175,0.0217690858989954,-0.0007431125268340111,0.002378713572397828,0.01020196825265884,-0.004765070974826813,0.008211910724639893,XArbitraryZVertical,-0.0001867518276946218,-0.002143876098486854,-0.0004490098860573756,0.9999976071451587,0.04257819801568985,-0.06722591072320938,-0.9968288540840149,0,0,0,-1,-1,3542.123566166667,unknown,2,2026-04-24T18:34:45.265+02:00,2026-04-24T18:20:19.173+02:00,16,0.7102333,0,0,12.45568,0,0,2026-04-24T18:28:28.837+02:00,798741318.8894778,0,1.99,101.5412,1,0.85,0
2026-04-24T18:35:20.614+02:00,1777048513.800981,53.56897219751585,9.882953190205464,38.55946,-1,-1,-1,-1,9.519085617248134,5.63601519283635,-9999,3577.45000325,0.034454345703125,-0.0663909912109375,-0.981170654296875,3577.44496625,-0.0008540005391838187,-0.004268867320041102,-0.0001504387622973453,0.0281825102865696,0.009400335140526295,0.005515917204320431,0.005272600799798965,-0.003260821104049683,0.01381146907806396,XArbitraryZVertical,-7.613060100892953e-05,-0.002134399586074775,-0.0004268387053181017,0.9999976909675192,0.04259423166513443,-0.06744840741157532,-0.9968131184577942,0,0,0,-1,-1,3542.123566166667,unknown,2,2026-04-24T18:34:45.265+02:00,2026-04-24T18:20:19.173+02:00,16,0.7102333,0,0,12.45568,0,0,2026-04-24T18:28:28.837+02:00,798741318.8894778,0,1.99,101.5412,1,0.85,0
2026-04-24T18:35:20.618+02:00,1777048513.800981,53.56897219751585,9.882953190205464,38.55946,-1,-1,-1,-1,9.519085617248134,5.63601519283635,-9999,3577.46007825,0.0327911376953125,-0.0564422607421875,-0.987030029296875,3577.45504025,-0.0007624756159679475,-0.004143689973621565,0.0001245142731482297,0.0300736203789711,0.02027854882180691,0.01094710174947977,-0.00450487807393074,-0.00183810293674469,0.01603055000305176,XArbitraryZVertical,6.146712824873727e-05,-0.002071866908792573,-0.0003813659344036361,0.9999978639782233,0.04271290078759193,-0.06772672384977341,-0.9967892169952393,0,0,0,-1,-1,3542.123566166667,unknown,2,2026-04-24T18:34:45.265+02:00,2026-04-24T18:20:19.173+02:00,16,0.7102333,0,0,12.45568,0,0,2026-04-24T18:28:28.837+02:00,798741318.8894778,0,1.99,101.5412,1,0.85,0
2026-04-24T18:35:20.620+02:00,1777048513.800981,53.56897219751585,9.882953190205464,38.55946,-1,-1,-1,-1,9.519085617248134,5.63601519283635,-9999,3577.47015225,0.0309600830078125,-0.0605316162109375,-0.9944305419921875,3577.46511525,-0.0006382476672969489,-0.003885140986887477,0.0004868263723305252,0.03800185024738312,0.03352644294500351,0.01474290434271097,-0.01030849665403366,0.007180526852607727,0.0138738751411438,XArbitraryZVertical,0.0002427927732696379,-0.001942646643606211,-0.0003195960387855361,0.9999981099468362,0.04296231642365456,-0.06809361279010773,-0.996753454208374,0,0,0,-1,-1,3542.123566166667,unknown,2,2026-04-24T18:34:45.265+02:00,2026-04-24T18:20:19.173+02:00,16,0.7102333,0,0,12.45568,0,0,2026-04-24T18:28:28.837+02:00,798741318.8894778,0,1.99,101.5412,1,0.85,0
2026-04-24T18:35:20.626+02:00,1777048513.800981,53.56897219751585,9.882953190205464,38.55946,-1,-1,-1,-1,9.519085617248134,5.63601519283635,-9999,3577.48022725,0.031158447265625,-0.0663909912109375,-0.999755859375,3577.47519025,-0.0004680532389209477,-0.00345887340769278,0.0008846971766316758,0.03609843552112579,0.04584543034434319,0.01956861838698387,-0.01142385974526405,0.01172012090682983,0.00493234395980835,XArbitraryZVertical,0.0004419431540854045,-0.001729539098564662,-0.000234791251374209,0.999998406758019,0.04337577894330025,-0.06849808245897293,-0.9967078566551208,0,0,0,-1,-1,3542.123566166667,unknown,2,2026-04-24T18:34:45.265+02:00,2026-04-24T18:20:19.173+02:00,16,0.7102333,0,0,12.45568,0,0,2026-04-24T18:28:28.837+02:00,798741318.8894778,0,1.99,101.5412,1,0.85,0
2026-04-24T18:35:20.636+02:00,1777048513.800981,53.56897219751585,9.882953190205464,38.55946,-1,-1,-1,-1,9.519085617248134,5.63601519283635,-9999,3577.49030125,0.0361328125,-0.0638580322265625,-1.002395629882812,3577.48526425,-0.0002602888830253786,-0.002975769715558484,0.001203120334960862,0.02984613180160522,0.0471639595925808,0.01985251158475876,-0.01302053034305573,0.004127852618694305,-3.921985626220703e-05,XArbitraryZVertical,0.0006013658202698172,-0.001487962316281832,-0.0001310393253839714,0.9999987037944031,0.04384329915046692,-0.0688251256942749,-0.9966648817062378,0,0,0,-1,-1,3542.123566166667,unknown,2,2026-04-24T18:34:45.265+02:00,2026-04-24T18:20:19.173+02:00,16,0.7102333,0,0,12.45568,0,0,2026-04-24T18:28:28.837+02:00,798741318.8894778,0,1.99,101.5412,1,0.85,0
2026-04-24T18:35:20.647+02:00,1777048513.800981,53.56897219751585,9.882953190205464,38.55946,-1,-1,-1,-1,9.519085617248134,5.63601519283635,-9999,3577.500377291667,0.047943115234375,-0.06903076171875,-0.9984130859375,3577.495340291667,-8.483194380493487e-05,-0.00251551009622864,0.00149548100664896,0.02828413434326649,0.03431260958313942,0.01636350527405739,-0.01091921329498291,0.004808872938156128,-0.005298197269439697,XArbitraryZVertical,0.0007476865235935314,-0.001257786131916856,-4.335640241048377e-05,0.999998887145358,0.0442901998758316,-0.06912467628717422,-0.9966244101524353,0,0,0,-1,-1,3542.123566166667,unknown,2,2026-04-24T18:34:45.265+02:00,2026-04-24T18:20:19.173+02:00,16,0.7102333,0,0,12.45568,0,0,2026-04-24T18:28:28.837+02:00,798741318.8894778,0,1.99,101.5412,1,0.85,0
2026-04-24T18:35:20.657+02:00,1777048513.800981,53.56897219751585,9.882953190205464,38.55946,-1,-1,-1,-1,9.519085617248134,5.63601519283635,-9999,3577.510452291667,0.059478759765625,-0.0709075927734375,-0.992828369140625,3577.505414291667,5.093076899205259e-05,-0.002234393189148817,0.001731336064544833,0.01716437190771103,0.01532080769538879,0.01064543146640062,-0.003362488001585007,0.003738023340702057,-0.004899799823760986,XArbitraryZVertical,0.000865695765548268,-0.001117173811019501,2.449823623411695e-05,0.9999990793940007,0.0445612296462059,-0.06936607509851456,-0.9965955018997192,0,0,0,-1,-1,3542.123566166667,unknown,2,2026-04-24T18:34:45.265+02:00,2026-04-24T18:20:19.173+02:00,16,0.7102333,0,0,12.45568,0,0,2026-04-24T18:28:28.837+02:00,798741318.8894778,0,1.99,101.5412,1,0.85,0
2026-04-24T18:35:20.667+02:00,1777048513.800981,53.56897219751585,9.882953190205464,38.55946,-1,-1,-1,-1,9.519085617248134,5.63601519283635,-9999,3577.520526291667,0.0617523193359375,-0.0711822509765625,-0.9838409423828125,3577.515489291667,0.0001131455495646819,-0.002138382863822755,0.001888277581138859,0.01291923969984055,-0.002041670028120279,0.002166326390579343,0.009683828800916672,-0.002190932631492615,0.0003187656402587891,XArbitraryZVertical,0.0009441984918939514,-0.001069137219331435,5.556324652447274e-05,0.9999990916544229,0.04465273395180702,-0.06952538341283798,-0.9965803027153015,0,0,0,-1,-1,3542.123566166667,unknown,2,2026-04-24T18:34:45.265+02:00,2026-04-24T18:20:19.173+02:00,16,0.7102333,0,0,12.45568,0,0,2026-04-24T18:28:28.837+02:00,798741318.8894778,0,1.99,101.5412,1,0.85,0
2026-04-24T18:35:20.677+02:00,1777048513.800981,53.56897219751585,9.882953190205464,38.55946,-1,-1,-1,-1,9.519085617248134,5.63601519283635,-9999,3577.530601291667,0.0549163818359375,-0.0738677978515625,-0.9824066162109375,3577.525564291667,0.0001319109830437494,-0.002217929777033927,0.001981823771279649,0.005105259828269482,-0.01483842451125383,8.666393114253879e-05,0.01734798401594162,-0.001135542988777161,0.00791466236114502,XArbitraryZVertical,0.0009909841675929385,-0.001108898661347181,6.485652697518604e-05,0.999998979507239,0.04457220062613487,-0.06961947679519653,-0.9965773820877075,0,0,0,-1,-1,3542.123566166667,unknown,2,2026-04-24T18:34:45.265+02:00,2026-04-24T18:20:19.173+02:00,16,0.7102333,0,0,12.45568,0,0,2026-04-24T18:28:28.837+02:00,798741318.8894778,0,1.99,101.5412,1,0.85,0
2026-04-24T18:35:20.687+02:00,1777048513.800981,53.56897219751585,9.882953190205464,38.55946,-1,-1,-1,-1,9.519085617248134,5.63601519283635,-9999,3577.540675291667,0.04852294921875,-0.074493408203125,-0.9842987060546875,3577.535638291667,0.0001119872583062685,-0.002419302394977548,0.002067684568521032,0.01520380657166243,-0.01832982897758484,-0.002774170134216547,0.01394623890519142,-0.002607323229312897,0.01452469825744629,XArbitraryZVertical,0.001033909070383832,-0.001209592360446196,5.474296998336412e-05,0.9999987367239619,0.04437287151813507,-0.0697040855884552,-0.9965803623199463,0,0,0,-1,-1,3542.123566166667,unknown,2,2026-04-24T18:34:45.265+02:00,2026-04-24T18:20:19.173+02:00,16,0.7102333,0,0,12.45568,0,0,2026-04-24T18:28:28.837+02:00,798741318.8894778,0,1.99,101.5412,1,0.85,0
2026-04-24T18:35:20.697+02:00,1777048513.800981,53.56897219751585,9.882953190205464,38.55946,-1,-1,-1,-1,9.519085617248134,5.63601519283635,-9999,3577.550750291667,0.04571533203125,-0.0686492919921875,-0.9847564697265625,3577.545713291667,7.324601967828828e-05,-0.002651507771165291,0.00225019136535145,0.0262569896876812,-0.01651701703667641,-0.004954500123858452,0.007567942142486572,-0.004655063152313232,0.0134541392326355,XArbitraryZVertical,0.001125143029801484,-0.001325711477558387,3.513135584473801e-05,0.9999984690436909,0.04414410889148712,-0.06988413631916046,-0.9965779185295105,0,0,0,-1,-1,3542.123566166667,unknown,2,2026-04-24T18:34:45.265+02:00,2026-04-24T18:20:19.173+02:00,16,0.7102333,0,0,12.45568,0,0,2026-04-24T18:28:28.837+02:00,798741318.8894778,0,1.99,101.5412,1,0.85,0
2026-04-24T18:35:20.707+02:00,1777048513.800981,53.56897219751585,9.882953190205464,38.55946,-1,-1,-1,-1,9.519085617248134,5.63601519283635,-9999,3577.560825291667,0.0411834716796875,-0.05987548828125,-0.9872589111328125,3577.555787291667,3.06710330929732e-05,-0.002851314728056087,0.002531958984007076,0.03766410797834396,-0.01164316479116678,-0.003165388479828835,0.002911821007728577,-0.00265202671289444,0.0124514102935791,XArbitraryZVertical,0.001265999632555326,-0.001425636213971658,1.353063601428143e-05,0.9999982595200472,0.04394793137907982,-0.07016292214393616,-0.9965669512748718,0,0,0,-1,-1,3542.123566166667,unknown,2,2026-04-24T18:34:45.265+02:00,2026-04-24T18:20:19.173+02:00,16,0.7102333,0,0,12.45568,0,0,2026-04-24T18:28:28.837+02:00,798741318.8894778,0,1.99,101.5412,1,0.85,0
2026-04-24T18:35:20.717+02:00,1777048513.800981,53.56897219751585,9.882953190205464,38.55946,-1,-1,-1,-1,9.519085617248134,5.63601519283635,-9999,3577.570899291667,0.037384033203125,-0.058868408203125,-0.9947052001953125,3577.565862291667,1.71748513958232e-05,-0.00296553240635684,0.002932581074527423,0.04451135918498039,-0.0008797328919172287,0.001235485193319619,7.971003651618958e-05,0.006321966648101807,0.01059716939926147,XArbitraryZVertical,0.001466301028532213,-0.001482751368507981,6.413242402167254e-06,0.9999978969430874,0.04383509978652,-0.0705614760518074,-0.996543824672699,0,0,0,-1,-1,3542.123566166667,unknown,2,2026-04-24T18:34:45.265+02:00,2026-04-24T18:20:19.173+02:00,16,0.7102333,0,0,12.45568,0,0,2026-04-24T18:28:28.837+02:00,798741318.8894778,0,1.99,101.5412,1,0.85,0
2026-04-24T18:35:20.727+02:00,1777048513.800981,53.56897219751585,9.882953190205464,38.55946,-1,-1,-1,-1,9.519085617248134,5.63601519283635,-9999,3577.580974291667,0.039031982421875,-0.0633087158203125,-1.000808715820312,3577.575937291667,4.610004353043346e-05,-0.002990410030524779,0.003349001419954153,0.04114608466625214,0.004722759127616882,0.003102028043940663,-0.005051106214523315,0.01304012537002563,0.007028758525848389,XArbitraryZVertical,0.001674532382880999,-0.001495163642172951,2.054624265674962e-05,0.9999975616749391,0.04380844160914421,-0.07097775489091873,-0.9965153932571411,0,0,0,-1,-1,3542.123566166667,unknown,2,2026-04-24T18:34:45.265+02:00,2026-04-24T18:20:19.173+02:00,16,0.7102333,0,0,12.45568,0,0,2026-04-24T18:28:28.837+02:00,798741318.8894778,0,1.99,101.5412,1,0.85,0
2026-04-24T18:35:20.737+02:00,1777048513.800981,53.56897219751585,9.882953190205464,38.55946,-1,-1,-1,-1,9.519085617248134,5.63601519283635,-9999,3577.591049291667,0.0430450439453125,-0.0735626220703125,-0.9978179931640625,3577.586011291667,6.54022484274459e-05,-0.002965858941934628,0.003679322615118032,0.03000048920512199,0.0005522486753761768,0.0005504533764906228,-0.006890125572681427,0.01132546365261078,-0.002547860145568848,XArbitraryZVertical,0.001839706610902747,-0.0014828661547675,2.997294577288181e-05,0.9999972777269043,0.04383166879415512,-0.07130777835845947,-0.9964908361434937,0,0,0,-1,-1,3542.123566166667,unknown,2,2026-04-24T18:34:45.265+02:00,2026-04-24T18:20:19.173+02:00,16,0.7102333,0,0,12.45568,0,0,2026-04-24T18:28:28.837+02:00,798741318.8894778,0,1.99,101.5412,1,0.85,0
